"date","time","subject","blocknum","blockcode","trialnum","trialcode","latency","timeofrating","valence_rating","videoindex","videoname"
"2021-12-05","02:38:08","Niva","2","listenblock","1","valence","2000","2430","25pct","1","P165_self_disclosure_neg1.wav"
"2021-12-05","02:38:08","Niva","2","listenblock","2","valence","2000","4453","25pct","1","P165_self_disclosure_neg1.wav"
"2021-12-05","02:38:08","Niva","2","listenblock","3","valence","2000","6469","25pct","1","P165_self_disclosure_neg1.wav"
"2021-12-05","02:38:08","Niva","2","listenblock","4","valence","2000","8487","25pct","1","P165_self_disclosure_neg1.wav"
"2021-12-05","02:38:08","Niva","2","listenblock","5","valence","2000","10504","25pct","1","P165_self_disclosure_neg1.wav"
"2021-12-05","02:38:08","Niva","2","listenblock","6","valence","2000","12521","25pct","1","P165_self_disclosure_neg1.wav"
"2021-12-05","02:38:08","Niva","2","listenblock","7","valence","2000","14538","25pct","1","P165_self_disclosure_neg1.wav"
"2021-12-05","02:38:08","Niva","2","listenblock","8","valence","2000","16556","25pct","1","P165_self_disclosure_neg1.wav"
"2021-12-05","02:38:08","Niva","2","listenblock","9","valence","2000","18573","25pct","1","P165_self_disclosure_neg1.wav"
"2021-12-05","02:38:08","Niva","2","listenblock","10","valence","2000","20589","25pct","1","P165_self_disclosure_neg1.wav"
"2021-12-05","02:38:08","Niva","2","listenblock","11","valence","2000","22607","25pct","1","P165_self_disclosure_neg1.wav"
"2021-12-05","02:38:08","Niva","2","listenblock","12","valence","2000","24624","25pct","1","P165_self_disclosure_neg1.wav"
"2021-12-05","02:38:08","Niva","2","listenblock","13","valence","2000","26641","25pct","1","P165_self_disclosure_neg1.wav"
"2021-12-05","02:38:08","Niva","2","listenblock","14","valence","2000","28658","25pct","1","P165_self_disclosure_neg1.wav"
"2021-12-05","02:38:08","Niva","2","listenblock","15","valence","2000","30675","25pct","1","P165_self_disclosure_neg1.wav"
"2021-12-05","02:38:08","Niva","2","listenblock","16","valence","2000","32693","25pct","1","P165_self_disclosure_neg1.wav"
"2021-12-05","02:38:08","Niva","2","listenblock","17","valence","2000","34710","25pct","1","P165_self_disclosure_neg1.wav"
"2021-12-05","02:38:08","Niva","2","listenblock","18","valence","2000","36727","25pct","1","P165_self_disclosure_neg1.wav"
"2021-12-05","02:38:08","Niva","2","listenblock","19","valence","2000","38744","25pct","1","P165_self_disclosure_neg1.wav"
"2021-12-05","02:38:08","Niva","2","listenblock","20","valence","2000","40762","25pct","1","P165_self_disclosure_neg1.wav"
"2021-12-05","02:38:08","Niva","2","listenblock","21","valence","2000","42779","25pct","1","P165_self_disclosure_neg1.wav"
"2021-12-05","02:38:08","Niva","2","listenblock","22","valence","2000","44796","25pct","1","P165_self_disclosure_neg1.wav"
"2021-12-05","02:38:08","Niva","2","listenblock","23","valence","2000","46813","25pct","1","P165_self_disclosure_neg1.wav"
"2021-12-05","02:38:08","Niva","2","listenblock","24","valence","2000","48831","25pct","1","P165_self_disclosure_neg1.wav"
"2021-12-05","02:38:08","Niva","2","listenblock","25","valence","2000","50848","25pct","1","P165_self_disclosure_neg1.wav"
"2021-12-05","02:38:08","Niva","2","listenblock","26","valence","2000","52864","25pct","1","P165_self_disclosure_neg1.wav"
"2021-12-05","02:38:08","Niva","2","listenblock","27","valence","2000","54882","25pct","1","P165_self_disclosure_neg1.wav"
"2021-12-05","02:38:08","Niva","2","listenblock","28","valence","2000","56899","25pct","1","P165_self_disclosure_neg1.wav"
"2021-12-05","02:38:08","Niva","2","listenblock","29","valence","2000","58916","25pct","1","P165_self_disclosure_neg1.wav"
"2021-12-05","02:38:08","Niva","2","listenblock","30","valence","2000","60933","25pct","1","P165_self_disclosure_neg1.wav"
"2021-12-05","02:38:08","Niva","2","listenblock","31","valence","2000","62950","25pct","1","P165_self_disclosure_neg1.wav"
"2021-12-05","02:38:08","Niva","2","listenblock","32","valence","2000","64968","25pct","1","P165_self_disclosure_neg1.wav"
"2021-12-05","02:38:08","Niva","2","listenblock","33","valence","2000","66985","25pct","1","P165_self_disclosure_neg1.wav"
"2021-12-05","02:38:08","Niva","2","listenblock","34","valence","2000","69002","25pct","1","P165_self_disclosure_neg1.wav"
"2021-12-05","02:38:08","Niva","2","listenblock","35","valence","2000","71019","25pct","1","P165_self_disclosure_neg1.wav"
"2021-12-05","02:38:08","Niva","2","listenblock","36","valence","2000","73037","25pct","1","P165_self_disclosure_neg1.wav"
"2021-12-05","02:38:08","Niva","2","listenblock","37","valence","2000","75054","25pct","1","P165_self_disclosure_neg1.wav"
"2021-12-05","02:38:08","Niva","2","listenblock","38","valence","2000","77071","25pct","1","P165_self_disclosure_neg1.wav"
"2021-12-05","02:38:08","Niva","2","listenblock","39","valence","2000","79088","25pct","1","P165_self_disclosure_neg1.wav"
"2021-12-05","02:38:08","Niva","2","listenblock","40","valence","2000","81105","25pct","1","P165_self_disclosure_neg1.wav"
"2021-12-05","02:38:08","Niva","2","listenblock","41","valence","2000","83122","25pct","1","P165_self_disclosure_neg1.wav"
"2021-12-05","02:38:08","Niva","2","listenblock","42","valence","2000","85139","25pct","1","P165_self_disclosure_neg1.wav"
"2021-12-05","02:38:08","Niva","2","listenblock","43","valence","2000","87156","25pct","1","P165_self_disclosure_neg1.wav"
"2021-12-05","02:38:08","Niva","2","listenblock","44","valence","19","87188","26pct","1","P165_self_disclosure_neg1.wav"
"2021-12-05","02:38:08","Niva","2","listenblock","45","valence","273","87496","27pct","1","P165_self_disclosure_neg1.wav"
"2021-12-05","02:38:08","Niva","2","listenblock","46","valence","520","88026","28pct","1","P165_self_disclosure_neg1.wav"
"2021-12-05","02:38:08","Niva","2","listenblock","47","valence","256","88296","29pct","1","P165_self_disclosure_neg1.wav"
"2021-12-05","02:38:08","Niva","2","listenblock","48","valence","1008","89315","30pct","1","P165_self_disclosure_neg1.wav"
"2021-12-05","02:38:08","Niva","2","listenblock","49","valence","2000","91341","30pct","1","P165_self_disclosure_neg1.wav"
"2021-12-05","02:38:08","Niva","2","listenblock","50","valence","433","91790","31pct","1","P165_self_disclosure_neg1.wav"
"2021-12-05","02:38:08","Niva","2","listenblock","51","valence","2000","93808","31pct","1","P165_self_disclosure_neg1.wav"
"2021-12-05","02:38:08","Niva","2","listenblock","52","valence","2000","95825","31pct","1","P165_self_disclosure_neg1.wav"
"2021-12-05","02:38:08","Niva","2","listenblock","53","valence","265","96107","30pct","1","P165_self_disclosure_neg1.wav"
"2021-12-05","02:38:08","Niva","2","listenblock","54","valence","241","96366","29pct","1","P165_self_disclosure_neg1.wav"
"2021-12-05","02:38:08","Niva","2","listenblock","55","valence","208","96600","28pct","1","P165_self_disclosure_neg1.wav"
"2021-12-05","02:38:08","Niva","2","listenblock","56","valence","2000","98626","28pct","1","P165_self_disclosure_neg1.wav"
"2021-12-05","02:38:08","Niva","2","listenblock","57","valence","1059","99702","29pct","1","P165_self_disclosure_neg1.wav"
"2021-12-05","02:38:08","Niva","2","listenblock","58","valence","786","100513","28pct","1","P165_self_disclosure_neg1.wav"
"2021-12-05","02:38:08","Niva","2","listenblock","59","valence","2000","102544","28pct","1","P165_self_disclosure_neg1.wav"
"2021-12-05","02:38:08","Niva","2","listenblock","60","valence","2000","104561","28pct","1","P165_self_disclosure_neg1.wav"
"2021-12-05","02:38:08","Niva","2","listenblock","61","valence","2000","106578","28pct","1","P165_self_disclosure_neg1.wav"
"2021-12-05","02:38:08","Niva","2","listenblock","62","valence","2000","108595","28pct","1","P165_self_disclosure_neg1.wav"
"2021-12-05","02:38:08","Niva","2","listenblock","63","valence","650","109263","29pct","1","P165_self_disclosure_neg1.wav"
"2021-12-05","02:38:08","Niva","2","listenblock","64","valence","305","109584","30pct","1","P165_self_disclosure_neg1.wav"
"2021-12-05","02:38:08","Niva","2","listenblock","65","valence","358","109953","31pct","1","P165_self_disclosure_neg1.wav"
"2021-12-05","02:38:08","Niva","2","listenblock","66","valence","1065","111044","32pct","1","P165_self_disclosure_neg1.wav"
"2021-12-05","02:38:08","Niva","2","listenblock","67","valence","373","111435","33pct","1","P165_self_disclosure_neg1.wav"
"2021-12-05","02:38:08","Niva","2","listenblock","68","valence","2000","113447","33pct","1","P165_self_disclosure_neg1.wav"
"2021-12-05","02:38:08","Niva","2","listenblock","69","valence","2000","115464","33pct","1","P165_self_disclosure_neg1.wav"
"2021-12-05","02:38:08","Niva","2","listenblock","70","valence","222","115702","32pct","1","P165_self_disclosure_neg1.wav"
"2021-12-05","02:38:08","Niva","2","listenblock","71","valence","394","116108","31pct","1","P165_self_disclosure_neg1.wav"
"2021-12-05","02:38:08","Niva","2","listenblock","72","valence","385","116515","30pct","1","P165_self_disclosure_neg1.wav"
"2021-12-05","02:38:08","Niva","2","listenblock","73","valence","462","116992","29pct","1","P165_self_disclosure_neg1.wav"
"2021-12-05","02:38:08","Niva","2","listenblock","74","valence","2000","119014","29pct","1","P165_self_disclosure_neg1.wav"
"2021-12-05","02:38:08","Niva","2","listenblock","75","valence","2000","121032","29pct","1","P165_self_disclosure_neg1.wav"
"2021-12-05","02:38:08","Niva","2","listenblock","76","valence","2000","123049","29pct","1","P165_self_disclosure_neg1.wav"
"2021-12-05","02:38:08","Niva","2","listenblock","77","valence","2000","125066","29pct","1","P165_self_disclosure_neg1.wav"
"2021-12-05","02:38:08","Niva","2","listenblock","78","valence","2000","127083","29pct","1","P165_self_disclosure_neg1.wav"
"2021-12-05","02:38:08","Niva","2","listenblock","79","valence","2000","129100","29pct","1","P165_self_disclosure_neg1.wav"
"2021-12-05","02:38:08","Niva","2","listenblock","80","valence","2000","131117","29pct","1","P165_self_disclosure_neg1.wav"
"2021-12-05","02:38:08","Niva","2","listenblock","81","valence","1232","132367","30pct","1","P165_self_disclosure_neg1.wav"
"2021-12-05","02:38:08","Niva","2","listenblock","82","valence","1289","133674","29pct","1","P165_self_disclosure_neg1.wav"
"2021-12-05","02:38:08","Niva","2","listenblock","83","valence","370","134054","28pct","1","P165_self_disclosure_neg1.wav"
"2021-12-05","02:38:08","Niva","2","listenblock","84","valence","2000","136069","28pct","1","P165_self_disclosure_neg1.wav"
"2021-12-05","02:38:08","Niva","2","listenblock","85","valence","628","136714","27pct","1","P165_self_disclosure_neg1.wav"
"2021-12-05","02:38:08","Niva","2","listenblock","86","valence","377","137112","26pct","1","P165_self_disclosure_neg1.wav"
"2021-12-05","02:38:08","Niva","2","listenblock","87","valence","1158","138293","27pct","1","P165_self_disclosure_neg1.wav"
"2021-12-05","02:38:08","Niva","2","listenblock","88","valence","2000","140319","27pct","1","P165_self_disclosure_neg1.wav"
"2021-12-05","02:38:08","Niva","2","listenblock","89","valence","2000","142336","27pct","1","P165_self_disclosure_neg1.wav"
"2021-12-05","02:38:08","Niva","2","listenblock","90","valence","2000","144354","27pct","1","P165_self_disclosure_neg1.wav"
"2021-12-05","02:38:08","Niva","2","listenblock","91","valence","2000","146371","27pct","1","P165_self_disclosure_neg1.wav"
"2021-12-05","02:38:08","Niva","2","listenblock","92","valence","1699","148088","28pct","1","P165_self_disclosure_neg1.wav"
"2021-12-05","02:38:08","Niva","2","listenblock","93","valence","492","148597","27pct","1","P165_self_disclosure_neg1.wav"
"2021-12-05","02:38:08","Niva","2","listenblock","94","valence","456","149078","26pct","1","P165_self_disclosure_neg1.wav"
"2021-12-05","02:38:08","Niva","2","listenblock","95","valence","329","149417","25pct","1","P165_self_disclosure_neg1.wav"
"2021-12-05","02:38:08","Niva","2","listenblock","96","valence","323","149762","24pct","1","P165_self_disclosure_neg1.wav"
"2021-12-05","02:38:08","Niva","2","listenblock","97","valence","2000","151789","24pct","1","P165_self_disclosure_neg1.wav"
"2021-12-05","02:38:08","Niva","2","listenblock","98","valence","2000","153806","24pct","1","P165_self_disclosure_neg1.wav"
"2021-12-05","02:38:08","Niva","2","listenblock","99","valence","2000","155823","24pct","1","P165_self_disclosure_neg1.wav"
"2021-12-05","02:38:08","Niva","2","listenblock","100","valence","2000","157840","24pct","1","P165_self_disclosure_neg1.wav"
"2021-12-05","02:38:08","Niva","2","listenblock","101","valence","2000","159858","24pct","1","P165_self_disclosure_neg1.wav"
"2021-12-05","02:38:08","Niva","2","listenblock","102","valence","2000","161875","24pct","1","P165_self_disclosure_neg1.wav"
"2021-12-05","02:38:08","Niva","2","listenblock","103","valence","2000","163892","24pct","1","P165_self_disclosure_neg1.wav"
"2021-12-05","02:38:08","Niva","2","listenblock","104","valence","2000","165909","24pct","1","P165_self_disclosure_neg1.wav"
"2021-12-05","02:38:08","Niva","2","listenblock","105","valence","2000","167926","24pct","1","P165_self_disclosure_neg1.wav"
"2021-12-05","02:38:08","Niva","2","listenblock","106","valence","2000","169944","24pct","1","P165_self_disclosure_neg1.wav"
"2021-12-05","02:38:08","Niva","2","listenblock","107","valence","2000","171961","24pct","1","P165_self_disclosure_neg1.wav"
"2021-12-05","02:38:08","Niva","2","listenblock","108","valence","2000","173978","24pct","1","P165_self_disclosure_neg1.wav"
"2021-12-05","02:38:08","Niva","2","listenblock","109","valence","2000","175995","24pct","1","P165_self_disclosure_neg1.wav"
"2021-12-05","02:38:08","Niva","2","listenblock","110","valence","2000","178013","24pct","1","P165_self_disclosure_neg1.wav"
"2021-12-05","02:38:08","Niva","2","listenblock","111","valence","1091","179120","23pct","1","P165_self_disclosure_neg1.wav"
"2021-12-05","02:38:08","Niva","2","listenblock","112","valence","417","179564","22pct","1","P165_self_disclosure_neg1.wav"
"2021-12-05","02:38:08","Niva","2","listenblock","113","valence","502","180082","21pct","1","P165_self_disclosure_neg1.wav"
"2021-12-05","02:38:08","Niva","4","listenblock","1","valence","2000","2128","25pct","5","P177_self_disclosure_pos1.wav"
"2021-12-05","02:38:08","Niva","4","listenblock","2","valence","2000","4145","25pct","5","P177_self_disclosure_pos1.wav"
"2021-12-05","02:38:08","Niva","4","listenblock","3","valence","1285","5446","24pct","5","P177_self_disclosure_pos1.wav"
"2021-12-05","02:38:08","Niva","4","listenblock","4","valence","256","5718","23pct","5","P177_self_disclosure_pos1.wav"
"2021-12-05","02:38:08","Niva","4","listenblock","5","valence","221","5950","22pct","5","P177_self_disclosure_pos1.wav"
"2021-12-05","02:38:08","Niva","4","listenblock","6","valence","213","6175","21pct","5","P177_self_disclosure_pos1.wav"
"2021-12-05","02:38:08","Niva","4","listenblock","7","valence","242","6437","20pct","5","P177_self_disclosure_pos1.wav"
"2021-12-05","02:38:08","Niva","4","listenblock","8","valence","443","6905","19pct","5","P177_self_disclosure_pos1.wav"
"2021-12-05","02:38:08","Niva","4","listenblock","9","valence","174","7103","18pct","5","P177_self_disclosure_pos1.wav"
"2021-12-05","02:38:08","Niva","4","listenblock","10","valence","221","7350","17pct","5","P177_self_disclosure_pos1.wav"
"2021-12-05","02:38:08","Niva","4","listenblock","11","valence","242","7604","16pct","5","P177_self_disclosure_pos1.wav"
"2021-12-05","02:38:08","Niva","4","listenblock","12","valence","2000","9630","16pct","5","P177_self_disclosure_pos1.wav"
"2021-12-05","02:38:08","Niva","4","listenblock","13","valence","2000","11647","16pct","5","P177_self_disclosure_pos1.wav"
"2021-12-05","02:38:08","Niva","4","listenblock","14","valence","2000","13664","16pct","5","P177_self_disclosure_pos1.wav"
"2021-12-05","02:38:08","Niva","4","listenblock","15","valence","2000","15681","16pct","5","P177_self_disclosure_pos1.wav"
"2021-12-05","02:38:08","Niva","4","listenblock","16","valence","2000","17698","16pct","5","P177_self_disclosure_pos1.wav"
"2021-12-05","02:38:08","Niva","4","listenblock","17","valence","2000","19716","16pct","5","P177_self_disclosure_pos1.wav"
"2021-12-05","02:38:08","Niva","4","listenblock","18","valence","401","20133","17pct","5","P177_self_disclosure_pos1.wav"
"2021-12-05","02:38:08","Niva","4","listenblock","19","valence","2000","22150","17pct","5","P177_self_disclosure_pos1.wav"
"2021-12-05","02:38:08","Niva","4","listenblock","20","valence","2000","24167","17pct","5","P177_self_disclosure_pos1.wav"
"2021-12-05","02:38:08","Niva","4","listenblock","21","valence","2000","26184","17pct","5","P177_self_disclosure_pos1.wav"
"2021-12-05","02:38:08","Niva","4","listenblock","22","valence","2000","28201","17pct","5","P177_self_disclosure_pos1.wav"
"2021-12-05","02:38:08","Niva","4","listenblock","23","valence","2000","30218","17pct","5","P177_self_disclosure_pos1.wav"
"2021-12-05","02:38:08","Niva","4","listenblock","24","valence","585","30820","18pct","5","P177_self_disclosure_pos1.wav"
"2021-12-05","02:38:08","Niva","4","listenblock","25","valence","440","31275","19pct","5","P177_self_disclosure_pos1.wav"
"2021-12-05","02:38:08","Niva","4","listenblock","26","valence","352","31655","20pct","5","P177_self_disclosure_pos1.wav"
"2021-12-05","02:38:08","Niva","4","listenblock","27","valence","674","32342","21pct","5","P177_self_disclosure_pos1.wav"
"2021-12-05","02:38:08","Niva","4","listenblock","28","valence","1527","33895","22pct","5","P177_self_disclosure_pos1.wav"
"2021-12-05","02:38:08","Niva","4","listenblock","29","valence","1365","35285","23pct","5","P177_self_disclosure_pos1.wav"
"2021-12-05","02:38:08","Niva","4","listenblock","30","valence","2000","37303","23pct","5","P177_self_disclosure_pos1.wav"
"2021-12-05","02:38:08","Niva","4","listenblock","31","valence","593","37913","24pct","5","P177_self_disclosure_pos1.wav"
"2021-12-05","02:38:08","Niva","4","listenblock","32","valence","331","38268","25pct","5","P177_self_disclosure_pos1.wav"
"2021-12-05","02:38:08","Niva","4","listenblock","33","valence","300","38588","26pct","5","P177_self_disclosure_pos1.wav"
"2021-12-05","02:38:08","Niva","4","listenblock","34","valence","311","38914","27pct","5","P177_self_disclosure_pos1.wav"
"2021-12-05","02:38:08","Niva","4","listenblock","35","valence","386","39323","28pct","5","P177_self_disclosure_pos1.wav"
"2021-12-05","02:38:08","Niva","4","listenblock","36","valence","383","39720","29pct","5","P177_self_disclosure_pos1.wav"
"2021-12-05","02:38:08","Niva","4","listenblock","37","valence","432","40170","30pct","5","P177_self_disclosure_pos1.wav"
"2021-12-05","02:38:08","Niva","4","listenblock","38","valence","682","40869","31pct","5","P177_self_disclosure_pos1.wav"
"2021-12-05","02:38:08","Niva","4","listenblock","39","valence","2000","42888","31pct","5","P177_self_disclosure_pos1.wav"
"2021-12-05","02:38:08","Niva","4","listenblock","40","valence","2000","44905","31pct","5","P177_self_disclosure_pos1.wav"
"2021-12-05","02:38:08","Niva","4","listenblock","41","valence","2000","46922","31pct","5","P177_self_disclosure_pos1.wav"
"2021-12-05","02:38:08","Niva","4","listenblock","42","valence","2000","48939","31pct","5","P177_self_disclosure_pos1.wav"
"2021-12-05","02:38:08","Niva","4","listenblock","43","valence","2000","50957","31pct","5","P177_self_disclosure_pos1.wav"
"2021-12-05","02:38:08","Niva","4","listenblock","44","valence","2000","52974","31pct","5","P177_self_disclosure_pos1.wav"
"2021-12-05","02:38:08","Niva","4","listenblock","45","valence","2000","54991","31pct","5","P177_self_disclosure_pos1.wav"
"2021-12-05","02:38:08","Niva","4","listenblock","46","valence","2000","57008","31pct","5","P177_self_disclosure_pos1.wav"
"2021-12-05","02:38:08","Niva","4","listenblock","47","valence","2000","59025","31pct","5","P177_self_disclosure_pos1.wav"
"2021-12-05","02:38:08","Niva","4","listenblock","48","valence","2000","61043","31pct","5","P177_self_disclosure_pos1.wav"
"2021-12-05","02:38:08","Niva","4","listenblock","49","valence","2000","63059","31pct","5","P177_self_disclosure_pos1.wav"
"2021-12-05","02:38:08","Niva","4","listenblock","50","valence","2000","65075","31pct","5","P177_self_disclosure_pos1.wav"
"2021-12-05","02:38:08","Niva","4","listenblock","51","valence","2000","67092","31pct","5","P177_self_disclosure_pos1.wav"
"2021-12-05","02:38:08","Niva","4","listenblock","52","valence","2000","69109","31pct","5","P177_self_disclosure_pos1.wav"
"2021-12-05","02:38:08","Niva","4","listenblock","53","valence","2000","71126","31pct","5","P177_self_disclosure_pos1.wav"
"2021-12-05","02:38:08","Niva","4","listenblock","54","valence","2000","73144","31pct","5","P177_self_disclosure_pos1.wav"
"2021-12-05","02:38:08","Niva","4","listenblock","55","valence","2000","75161","31pct","5","P177_self_disclosure_pos1.wav"
"2021-12-05","02:38:08","Niva","4","listenblock","56","valence","2000","77178","31pct","5","P177_self_disclosure_pos1.wav"
"2021-12-05","02:38:08","Niva","4","listenblock","57","valence","2000","79195","31pct","5","P177_self_disclosure_pos1.wav"
"2021-12-05","02:38:08","Niva","4","listenblock","58","valence","2000","81213","31pct","5","P177_self_disclosure_pos1.wav"
"2021-12-05","02:38:08","Niva","4","listenblock","59","valence","2000","83230","31pct","5","P177_self_disclosure_pos1.wav"
"2021-12-05","02:38:08","Niva","4","listenblock","60","valence","2000","85247","31pct","5","P177_self_disclosure_pos1.wav"
"2021-12-05","02:38:08","Niva","4","listenblock","61","valence","2000","87265","31pct","5","P177_self_disclosure_pos1.wav"
"2021-12-05","02:38:08","Niva","4","listenblock","62","valence","2000","89282","31pct","5","P177_self_disclosure_pos1.wav"
"2021-12-05","02:38:08","Niva","4","listenblock","63","valence","2000","91299","31pct","5","P177_self_disclosure_pos1.wav"
"2021-12-05","02:38:08","Niva","4","listenblock","64","valence","2000","93317","31pct","5","P177_self_disclosure_pos1.wav"
"2021-12-05","02:38:08","Niva","4","listenblock","65","valence","2000","95335","31pct","5","P177_self_disclosure_pos1.wav"
"2021-12-05","02:38:08","Niva","4","listenblock","66","valence","2000","97351","31pct","5","P177_self_disclosure_pos1.wav"
"2021-12-05","02:38:08","Niva","4","listenblock","67","valence","2000","99369","31pct","5","P177_self_disclosure_pos1.wav"
"2021-12-05","02:38:08","Niva","4","listenblock","68","valence","2000","101386","31pct","5","P177_self_disclosure_pos1.wav"
"2021-12-05","02:38:08","Niva","4","listenblock","69","valence","2000","103403","31pct","5","P177_self_disclosure_pos1.wav"
"2021-12-05","02:38:08","Niva","4","listenblock","70","valence","2000","105420","31pct","5","P177_self_disclosure_pos1.wav"
"2021-12-05","02:38:08","Niva","4","listenblock","71","valence","2000","107438","31pct","5","P177_self_disclosure_pos1.wav"
"2021-12-05","02:38:08","Niva","4","listenblock","72","valence","2000","109455","31pct","5","P177_self_disclosure_pos1.wav"
"2021-12-05","02:38:08","Niva","4","listenblock","73","valence","2000","111472","31pct","5","P177_self_disclosure_pos1.wav"
"2021-12-05","02:38:08","Niva","4","listenblock","74","valence","2000","113489","31pct","5","P177_self_disclosure_pos1.wav"
"2021-12-05","02:38:08","Niva","4","listenblock","75","valence","2000","115506","31pct","5","P177_self_disclosure_pos1.wav"
"2021-12-05","02:38:08","Niva","4","listenblock","76","valence","2000","117524","31pct","5","P177_self_disclosure_pos1.wav"
"2021-12-05","02:38:08","Niva","4","listenblock","77","valence","2000","119540","31pct","5","P177_self_disclosure_pos1.wav"
"2021-12-05","02:38:08","Niva","4","listenblock","78","valence","2000","121557","31pct","5","P177_self_disclosure_pos1.wav"
"2021-12-05","02:38:08","Niva","4","listenblock","79","valence","2000","123575","31pct","5","P177_self_disclosure_pos1.wav"
"2021-12-05","02:38:08","Niva","4","listenblock","80","valence","2000","125592","31pct","5","P177_self_disclosure_pos1.wav"
"2021-12-05","02:38:08","Niva","4","listenblock","81","valence","2000","127609","31pct","5","P177_self_disclosure_pos1.wav"
"2021-12-05","02:38:08","Niva","4","listenblock","82","valence","2000","129626","31pct","5","P177_self_disclosure_pos1.wav"
"2021-12-05","02:38:08","Niva","4","listenblock","83","valence","2000","131644","31pct","5","P177_self_disclosure_pos1.wav"
"2021-12-05","02:38:08","Niva","4","listenblock","84","valence","2000","133661","31pct","5","P177_self_disclosure_pos1.wav"
"2021-12-05","02:38:08","Niva","4","listenblock","85","valence","2000","135677","31pct","5","P177_self_disclosure_pos1.wav"
"2021-12-05","02:38:08","Niva","4","listenblock","86","valence","2000","137695","31pct","5","P177_self_disclosure_pos1.wav"
"2021-12-05","02:38:08","Niva","4","listenblock","87","valence","2000","139712","31pct","5","P177_self_disclosure_pos1.wav"
"2021-12-05","02:38:08","Niva","4","listenblock","88","valence","2000","141729","31pct","5","P177_self_disclosure_pos1.wav"
"2021-12-05","02:38:08","Niva","4","listenblock","89","valence","1682","143427","32pct","5","P177_self_disclosure_pos1.wav"
"2021-12-05","02:38:08","Niva","4","listenblock","90","valence","282","143728","33pct","5","P177_self_disclosure_pos1.wav"
"2021-12-05","02:38:08","Niva","4","listenblock","91","valence","237","143983","34pct","5","P177_self_disclosure_pos1.wav"
"2021-12-05","02:38:08","Niva","4","listenblock","92","valence","251","144247","35pct","5","P177_self_disclosure_pos1.wav"
"2021-12-05","02:38:08","Niva","4","listenblock","93","valence","257","144521","36pct","5","P177_self_disclosure_pos1.wav"
"2021-12-05","02:38:08","Niva","4","listenblock","94","valence","649","145196","37pct","5","P177_self_disclosure_pos1.wav"
"2021-12-05","02:38:08","Niva","4","listenblock","95","valence","352","145565","38pct","5","P177_self_disclosure_pos1.wav"
"2021-12-05","02:38:08","Niva","4","listenblock","96","valence","2000","147580","38pct","5","P177_self_disclosure_pos1.wav"
"2021-12-05","02:38:08","Niva","4","listenblock","97","valence","2000","149597","38pct","5","P177_self_disclosure_pos1.wav"
"2021-12-05","02:38:08","Niva","4","listenblock","98","valence","2000","151614","38pct","5","P177_self_disclosure_pos1.wav"
"2021-12-05","02:38:08","Niva","4","listenblock","99","valence","2000","153632","38pct","5","P177_self_disclosure_pos1.wav"
"2021-12-05","02:38:08","Niva","4","listenblock","100","valence","2000","155650","38pct","5","P177_self_disclosure_pos1.wav"
"2021-12-05","02:38:08","Niva","4","listenblock","101","valence","2000","157666","38pct","5","P177_self_disclosure_pos1.wav"
"2021-12-05","02:38:08","Niva","4","listenblock","102","valence","2000","159683","38pct","5","P177_self_disclosure_pos1.wav"
"2021-12-05","02:38:08","Niva","4","listenblock","103","valence","2000","161701","38pct","5","P177_self_disclosure_pos1.wav"
"2021-12-05","02:38:08","Niva","4","listenblock","104","valence","2000","163718","38pct","5","P177_self_disclosure_pos1.wav"
"2021-12-05","02:38:08","Niva","4","listenblock","105","valence","2000","165735","38pct","5","P177_self_disclosure_pos1.wav"
"2021-12-05","02:38:08","Niva","4","listenblock","106","valence","2000","167752","38pct","5","P177_self_disclosure_pos1.wav"
"2021-12-05","02:38:08","Niva","4","listenblock","107","valence","2000","169770","38pct","5","P177_self_disclosure_pos1.wav"
"2021-12-05","02:38:08","Niva","4","listenblock","108","valence","2000","171787","38pct","5","P177_self_disclosure_pos1.wav"
"2021-12-05","02:38:08","Niva","4","listenblock","109","valence","2000","173804","38pct","5","P177_self_disclosure_pos1.wav"
"2021-12-05","02:38:08","Niva","4","listenblock","110","valence","2000","175821","38pct","5","P177_self_disclosure_pos1.wav"
"2021-12-05","02:38:08","Niva","4","listenblock","111","valence","2000","177839","38pct","5","P177_self_disclosure_pos1.wav"
"2021-12-05","02:38:08","Niva","4","listenblock","112","valence","2000","179855","38pct","5","P177_self_disclosure_pos1.wav"
"2021-12-05","02:38:08","Niva","4","listenblock","113","valence","2000","181873","38pct","5","P177_self_disclosure_pos1.wav"
"2021-12-05","02:38:08","Niva","6","listenblock","1","valence","2000","2586","25pct","4","P176_self_disclosure_pos2.wav"
"2021-12-05","02:38:08","Niva","6","listenblock","2","valence","2000","4603","25pct","4","P176_self_disclosure_pos2.wav"
"2021-12-05","02:38:08","Niva","6","listenblock","3","valence","2000","6619","25pct","4","P176_self_disclosure_pos2.wav"
"2021-12-05","02:38:08","Niva","6","listenblock","4","valence","2000","8637","25pct","4","P176_self_disclosure_pos2.wav"
"2021-12-05","02:38:08","Niva","6","listenblock","5","valence","2000","10654","25pct","4","P176_self_disclosure_pos2.wav"
"2021-12-05","02:38:08","Niva","6","listenblock","6","valence","2000","12671","25pct","4","P176_self_disclosure_pos2.wav"
"2021-12-05","02:38:08","Niva","6","listenblock","7","valence","2000","14688","25pct","4","P176_self_disclosure_pos2.wav"
"2021-12-05","02:38:08","Niva","6","listenblock","8","valence","2000","16706","25pct","4","P176_self_disclosure_pos2.wav"
"2021-12-05","02:38:08","Niva","6","listenblock","9","valence","2000","18723","25pct","4","P176_self_disclosure_pos2.wav"
"2021-12-05","02:38:08","Niva","6","listenblock","10","valence","2000","20740","25pct","4","P176_self_disclosure_pos2.wav"
"2021-12-05","02:38:08","Niva","6","listenblock","11","valence","1821","22577","26pct","4","P176_self_disclosure_pos2.wav"
"2021-12-05","02:38:08","Niva","6","listenblock","12","valence","314","22904","27pct","4","P176_self_disclosure_pos2.wav"
"2021-12-05","02:38:08","Niva","6","listenblock","13","valence","197","23120","28pct","4","P176_self_disclosure_pos2.wav"
"2021-12-05","02:38:08","Niva","6","listenblock","14","valence","287","23427","29pct","4","P176_self_disclosure_pos2.wav"
"2021-12-05","02:38:08","Niva","6","listenblock","15","valence","212","23653","30pct","4","P176_self_disclosure_pos2.wav"
"2021-12-05","02:38:08","Niva","6","listenblock","16","valence","594","24267","31pct","4","P176_self_disclosure_pos2.wav"
"2021-12-05","02:38:08","Niva","6","listenblock","17","valence","353","24645","32pct","4","P176_self_disclosure_pos2.wav"
"2021-12-05","02:38:08","Niva","6","listenblock","18","valence","356","25014","33pct","4","P176_self_disclosure_pos2.wav"
"2021-12-05","02:38:08","Niva","6","listenblock","19","valence","1855","26896","34pct","4","P176_self_disclosure_pos2.wav"
"2021-12-05","02:38:08","Niva","6","listenblock","20","valence","308","27215","35pct","4","P176_self_disclosure_pos2.wav"
"2021-12-05","02:38:08","Niva","6","listenblock","21","valence","2000","29241","35pct","4","P176_self_disclosure_pos2.wav"
"2021-12-05","02:38:08","Niva","6","listenblock","22","valence","2000","31259","35pct","4","P176_self_disclosure_pos2.wav"
"2021-12-05","02:38:08","Niva","6","listenblock","23","valence","2000","33276","35pct","4","P176_self_disclosure_pos2.wav"
"2021-12-05","02:38:08","Niva","6","listenblock","24","valence","2000","35293","35pct","4","P176_self_disclosure_pos2.wav"
"2021-12-05","02:38:08","Niva","6","listenblock","25","valence","2000","37310","35pct","4","P176_self_disclosure_pos2.wav"
"2021-12-05","02:38:08","Niva","6","listenblock","26","valence","2000","39328","35pct","4","P176_self_disclosure_pos2.wav"
"2021-12-05","02:38:08","Niva","6","listenblock","27","valence","2000","41345","35pct","4","P176_self_disclosure_pos2.wav"
"2021-12-05","02:38:08","Niva","6","listenblock","28","valence","2000","43362","35pct","4","P176_self_disclosure_pos2.wav"
"2021-12-05","02:38:08","Niva","6","listenblock","29","valence","2000","45379","35pct","4","P176_self_disclosure_pos2.wav"
"2021-12-05","02:38:08","Niva","6","listenblock","30","valence","2000","47396","35pct","4","P176_self_disclosure_pos2.wav"
"2021-12-05","02:38:08","Niva","6","listenblock","31","valence","2000","49413","35pct","4","P176_self_disclosure_pos2.wav"
"2021-12-05","02:38:08","Niva","6","listenblock","32","valence","2000","51430","35pct","4","P176_self_disclosure_pos2.wav"
"2021-12-05","02:38:08","Niva","6","listenblock","33","valence","2000","53448","35pct","4","P176_self_disclosure_pos2.wav"
"2021-12-05","02:38:08","Niva","6","listenblock","34","valence","1257","54722","34pct","4","P176_self_disclosure_pos2.wav"
"2021-12-05","02:38:08","Niva","6","listenblock","35","valence","188","54937","33pct","4","P176_self_disclosure_pos2.wav"
"2021-12-05","02:38:08","Niva","6","listenblock","36","valence","205","55153","32pct","4","P176_self_disclosure_pos2.wav"
"2021-12-05","02:38:08","Niva","6","listenblock","37","valence","203","55368","31pct","4","P176_self_disclosure_pos2.wav"
"2021-12-05","02:38:08","Niva","6","listenblock","38","valence","234","55617","30pct","4","P176_self_disclosure_pos2.wav"
"2021-12-05","02:38:08","Niva","6","listenblock","39","valence","230","55861","29pct","4","P176_self_disclosure_pos2.wav"
"2021-12-05","02:38:08","Niva","6","listenblock","40","valence","215","56097","28pct","4","P176_self_disclosure_pos2.wav"
"2021-12-05","02:38:08","Niva","6","listenblock","41","valence","265","56381","27pct","4","P176_self_disclosure_pos2.wav"
"2021-12-05","02:38:08","Niva","6","listenblock","42","valence","268","56666","26pct","4","P176_self_disclosure_pos2.wav"
"2021-12-05","02:38:08","Niva","6","listenblock","43","valence","548","57231","25pct","4","P176_self_disclosure_pos2.wav"
"2021-12-05","02:38:08","Niva","6","listenblock","44","valence","2000","59249","25pct","4","P176_self_disclosure_pos2.wav"
"2021-12-05","02:38:08","Niva","6","listenblock","45","valence","2000","61266","25pct","4","P176_self_disclosure_pos2.wav"
"2021-12-05","02:38:08","Niva","6","listenblock","46","valence","2000","63283","25pct","4","P176_self_disclosure_pos2.wav"
"2021-12-05","02:38:08","Niva","6","listenblock","47","valence","2000","65301","25pct","4","P176_self_disclosure_pos2.wav"
"2021-12-05","02:38:08","Niva","6","listenblock","48","valence","2000","67318","25pct","4","P176_self_disclosure_pos2.wav"
"2021-12-05","02:38:08","Niva","6","listenblock","49","valence","2000","69335","25pct","4","P176_self_disclosure_pos2.wav"
"2021-12-05","02:38:08","Niva","6","listenblock","50","valence","2000","71353","25pct","4","P176_self_disclosure_pos2.wav"
"2021-12-05","02:38:08","Niva","6","listenblock","51","valence","2000","73369","25pct","4","P176_self_disclosure_pos2.wav"
"2021-12-05","02:38:08","Niva","6","listenblock","52","valence","2000","75387","25pct","4","P176_self_disclosure_pos2.wav"
"2021-12-05","02:38:08","Niva","6","listenblock","53","valence","2000","77404","25pct","4","P176_self_disclosure_pos2.wav"
"2021-12-05","02:38:08","Niva","6","listenblock","54","valence","2000","79421","25pct","4","P176_self_disclosure_pos2.wav"
"2021-12-05","02:38:08","Niva","6","listenblock","55","valence","2000","81438","25pct","4","P176_self_disclosure_pos2.wav"
"2021-12-05","02:38:08","Niva","6","listenblock","56","valence","2000","83455","25pct","4","P176_self_disclosure_pos2.wav"
"2021-12-05","02:38:08","Niva","6","listenblock","57","valence","2000","85472","25pct","4","P176_self_disclosure_pos2.wav"
"2021-12-05","02:38:08","Niva","6","listenblock","58","valence","2000","87489","25pct","4","P176_self_disclosure_pos2.wav"
"2021-12-05","02:38:08","Niva","6","listenblock","59","valence","2000","89507","25pct","4","P176_self_disclosure_pos2.wav"
"2021-12-05","02:38:08","Niva","6","listenblock","60","valence","2000","91524","25pct","4","P176_self_disclosure_pos2.wav"
"2021-12-05","02:38:08","Niva","6","listenblock","61","valence","2000","93541","25pct","4","P176_self_disclosure_pos2.wav"
"2021-12-05","02:38:08","Niva","6","listenblock","62","valence","2000","95558","25pct","4","P176_self_disclosure_pos2.wav"
"2021-12-05","02:38:08","Niva","6","listenblock","63","valence","2000","97575","25pct","4","P176_self_disclosure_pos2.wav"
"2021-12-05","02:38:08","Niva","6","listenblock","64","valence","2000","99593","25pct","4","P176_self_disclosure_pos2.wav"
"2021-12-05","02:38:08","Niva","6","listenblock","65","valence","18","99622","24pct","4","P176_self_disclosure_pos2.wav"
"2021-12-05","02:38:08","Niva","6","listenblock","66","valence","533","100192","23pct","4","P176_self_disclosure_pos2.wav"
"2021-12-05","02:38:08","Niva","6","listenblock","67","valence","348","100557","22pct","4","P176_self_disclosure_pos2.wav"
"2021-12-05","02:38:08","Niva","6","listenblock","68","valence","1592","102174","23pct","4","P176_self_disclosure_pos2.wav"
"2021-12-05","02:38:08","Niva","6","listenblock","69","valence","366","102575","24pct","4","P176_self_disclosure_pos2.wav"
"2021-12-05","02:38:08","Niva","6","listenblock","70","valence","319","102912","25pct","4","P176_self_disclosure_pos2.wav"
"2021-12-05","02:38:08","Niva","6","listenblock","71","valence","451","103377","26pct","4","P176_self_disclosure_pos2.wav"
"2021-12-05","02:38:08","Niva","6","listenblock","72","valence","389","103782","27pct","4","P176_self_disclosure_pos2.wav"
"2021-12-05","02:38:08","Niva","6","listenblock","73","valence","2000","105810","27pct","4","P176_self_disclosure_pos2.wav"
"2021-12-05","02:38:08","Niva","6","listenblock","74","valence","2000","107828","27pct","4","P176_self_disclosure_pos2.wav"
"2021-12-05","02:38:08","Niva","6","listenblock","75","valence","2000","109845","27pct","4","P176_self_disclosure_pos2.wav"
"2021-12-05","02:38:08","Niva","6","listenblock","76","valence","2000","111863","27pct","4","P176_self_disclosure_pos2.wav"
"2021-12-05","02:38:08","Niva","6","listenblock","77","valence","2000","113879","27pct","4","P176_self_disclosure_pos2.wav"
"2021-12-05","02:38:08","Niva","6","listenblock","78","valence","2000","115897","27pct","4","P176_self_disclosure_pos2.wav"
"2021-12-05","02:38:08","Niva","6","listenblock","79","valence","2000","117914","27pct","4","P176_self_disclosure_pos2.wav"
"2021-12-05","02:38:08","Niva","6","listenblock","80","valence","2000","119931","27pct","4","P176_self_disclosure_pos2.wav"
"2021-12-05","02:38:08","Niva","6","listenblock","81","valence","2000","121948","27pct","4","P176_self_disclosure_pos2.wav"
"2021-12-05","02:38:08","Niva","6","listenblock","82","valence","2000","123966","27pct","4","P176_self_disclosure_pos2.wav"
"2021-12-05","02:38:08","Niva","6","listenblock","83","valence","2000","125983","27pct","4","P176_self_disclosure_pos2.wav"
"2021-12-05","02:38:08","Niva","6","listenblock","84","valence","2000","128000","27pct","4","P176_self_disclosure_pos2.wav"
"2021-12-05","02:38:08","Niva","6","listenblock","85","valence","2000","130017","27pct","4","P176_self_disclosure_pos2.wav"
"2021-12-05","02:38:08","Niva","6","listenblock","86","valence","2000","132034","27pct","4","P176_self_disclosure_pos2.wav"
"2021-12-05","02:38:08","Niva","6","listenblock","87","valence","2000","134051","27pct","4","P176_self_disclosure_pos2.wav"
"2021-12-05","02:38:08","Niva","6","listenblock","88","valence","2000","136068","27pct","4","P176_self_disclosure_pos2.wav"
"2021-12-05","02:38:08","Niva","6","listenblock","89","valence","2000","138086","27pct","4","P176_self_disclosure_pos2.wav"
"2021-12-05","02:38:08","Niva","6","listenblock","90","valence","2000","140103","27pct","4","P176_self_disclosure_pos2.wav"
"2021-12-05","02:38:08","Niva","6","listenblock","91","valence","2000","142120","27pct","4","P176_self_disclosure_pos2.wav"
"2021-12-05","02:38:08","Niva","6","listenblock","92","valence","2000","144138","27pct","4","P176_self_disclosure_pos2.wav"
"2021-12-05","02:38:08","Niva","6","listenblock","93","valence","2000","146155","27pct","4","P176_self_disclosure_pos2.wav"
"2021-12-05","02:38:08","Niva","6","listenblock","94","valence","2000","148171","27pct","4","P176_self_disclosure_pos2.wav"
"2021-12-05","02:38:08","Niva","6","listenblock","95","valence","2000","150189","27pct","4","P176_self_disclosure_pos2.wav"
"2021-12-05","02:38:08","Niva","6","listenblock","96","valence","2000","152206","27pct","4","P176_self_disclosure_pos2.wav"
"2021-12-05","02:38:08","Niva","6","listenblock","97","valence","2000","154223","27pct","4","P176_self_disclosure_pos2.wav"
"2021-12-05","02:38:08","Niva","6","listenblock","98","valence","2000","156240","27pct","4","P176_self_disclosure_pos2.wav"
"2021-12-05","02:38:08","Niva","6","listenblock","99","valence","2000","158257","27pct","4","P176_self_disclosure_pos2.wav"
"2021-12-05","02:38:08","Niva","6","listenblock","100","valence","2000","160275","27pct","4","P176_self_disclosure_pos2.wav"
"2021-12-05","02:38:08","Niva","6","listenblock","101","valence","2000","162291","27pct","4","P176_self_disclosure_pos2.wav"
"2021-12-05","02:38:08","Niva","6","listenblock","102","valence","2000","164309","27pct","4","P176_self_disclosure_pos2.wav"
"2021-12-05","02:38:08","Niva","6","listenblock","103","valence","2000","166326","27pct","4","P176_self_disclosure_pos2.wav"
"2021-12-05","02:38:08","Niva","6","listenblock","104","valence","2000","168343","27pct","4","P176_self_disclosure_pos2.wav"
"2021-12-05","02:38:08","Niva","6","listenblock","105","valence","2000","170360","27pct","4","P176_self_disclosure_pos2.wav"
"2021-12-05","02:38:08","Niva","6","listenblock","106","valence","2000","172377","27pct","4","P176_self_disclosure_pos2.wav"
"2021-12-05","02:38:08","Niva","6","listenblock","107","valence","2000","174394","27pct","4","P176_self_disclosure_pos2.wav"
"2021-12-05","02:38:08","Niva","6","listenblock","108","valence","2000","176412","27pct","4","P176_self_disclosure_pos2.wav"
"2021-12-05","02:38:08","Niva","6","listenblock","109","valence","2000","178429","27pct","4","P176_self_disclosure_pos2.wav"
"2021-12-05","02:38:08","Niva","6","listenblock","110","valence","2000","180446","27pct","4","P176_self_disclosure_pos2.wav"
"2021-12-05","02:38:08","Niva","8","listenblock","1","valence","2000","2417","25pct","2","P173_self_disclosure_pos2.wav"
"2021-12-05","02:38:08","Niva","8","listenblock","2","valence","2000","4432","25pct","2","P173_self_disclosure_pos2.wav"
"2021-12-05","02:38:08","Niva","8","listenblock","3","valence","2000","6449","25pct","2","P173_self_disclosure_pos2.wav"
"2021-12-05","02:38:08","Niva","8","listenblock","4","valence","2000","8467","25pct","2","P173_self_disclosure_pos2.wav"
"2021-12-05","02:38:08","Niva","8","listenblock","5","valence","2000","10483","25pct","2","P173_self_disclosure_pos2.wav"
"2021-12-05","02:38:08","Niva","8","listenblock","6","valence","1539","12040","24pct","2","P173_self_disclosure_pos2.wav"
"2021-12-05","02:38:08","Niva","8","listenblock","7","valence","292","12343","23pct","2","P173_self_disclosure_pos2.wav"
"2021-12-05","02:38:08","Niva","8","listenblock","8","valence","180","12548","22pct","2","P173_self_disclosure_pos2.wav"
"2021-12-05","02:38:08","Niva","8","listenblock","9","valence","201","12768","21pct","2","P173_self_disclosure_pos2.wav"
"2021-12-05","02:38:08","Niva","8","listenblock","10","valence","256","13041","20pct","2","P173_self_disclosure_pos2.wav"
"2021-12-05","02:38:08","Niva","8","listenblock","11","valence","230","13299","19pct","2","P173_self_disclosure_pos2.wav"
"2021-12-05","02:38:08","Niva","8","listenblock","12","valence","228","13546","18pct","2","P173_self_disclosure_pos2.wav"
"2021-12-05","02:38:08","Niva","8","listenblock","13","valence","192","13761","17pct","2","P173_self_disclosure_pos2.wav"
"2021-12-05","02:38:08","Niva","8","listenblock","14","valence","218","14003","16pct","2","P173_self_disclosure_pos2.wav"
"2021-12-05","02:38:08","Niva","8","listenblock","15","valence","274","14292","15pct","2","P173_self_disclosure_pos2.wav"
"2021-12-05","02:38:08","Niva","8","listenblock","16","valence","258","14577","14pct","2","P173_self_disclosure_pos2.wav"
"2021-12-05","02:38:08","Niva","8","listenblock","17","valence","2000","16602","14pct","2","P173_self_disclosure_pos2.wav"
"2021-12-05","02:38:08","Niva","8","listenblock","18","valence","2000","18619","14pct","2","P173_self_disclosure_pos2.wav"
"2021-12-05","02:38:08","Niva","8","listenblock","19","valence","2000","20636","14pct","2","P173_self_disclosure_pos2.wav"
"2021-12-05","02:38:08","Niva","8","listenblock","20","valence","2000","22653","14pct","2","P173_self_disclosure_pos2.wav"
"2021-12-05","02:38:08","Niva","8","listenblock","21","valence","754","23425","15pct","2","P173_self_disclosure_pos2.wav"
"2021-12-05","02:38:08","Niva","8","listenblock","22","valence","265","23702","16pct","2","P173_self_disclosure_pos2.wav"
"2021-12-05","02:38:08","Niva","8","listenblock","23","valence","215","23936","17pct","2","P173_self_disclosure_pos2.wav"
"2021-12-05","02:38:08","Niva","8","listenblock","24","valence","297","24251","18pct","2","P173_self_disclosure_pos2.wav"
"2021-12-05","02:38:08","Niva","8","listenblock","25","valence","259","24530","19pct","2","P173_self_disclosure_pos2.wav"
"2021-12-05","02:38:08","Niva","8","listenblock","26","valence","602","25155","20pct","2","P173_self_disclosure_pos2.wav"
"2021-12-05","02:38:08","Niva","8","listenblock","27","valence","387","25557","21pct","2","P173_self_disclosure_pos2.wav"
"2021-12-05","02:38:08","Niva","8","listenblock","28","valence","326","25898","22pct","2","P173_self_disclosure_pos2.wav"
"2021-12-05","02:38:08","Niva","8","listenblock","29","valence","408","26330","23pct","2","P173_self_disclosure_pos2.wav"
"2021-12-05","02:38:08","Niva","8","listenblock","30","valence","750","27105","24pct","2","P173_self_disclosure_pos2.wav"
"2021-12-05","02:38:08","Niva","8","listenblock","31","valence","285","27407","25pct","2","P173_self_disclosure_pos2.wav"
"2021-12-05","02:38:08","Niva","8","listenblock","32","valence","354","27776","26pct","2","P173_self_disclosure_pos2.wav"
"2021-12-05","02:38:08","Niva","8","listenblock","33","valence","2000","29788","26pct","2","P173_self_disclosure_pos2.wav"
"2021-12-05","02:38:08","Niva","8","listenblock","34","valence","2000","31805","26pct","2","P173_self_disclosure_pos2.wav"
"2021-12-05","02:38:08","Niva","8","listenblock","35","valence","2000","33823","26pct","2","P173_self_disclosure_pos2.wav"
"2021-12-05","02:38:08","Niva","8","listenblock","36","valence","2000","35840","26pct","2","P173_self_disclosure_pos2.wav"
"2021-12-05","02:38:08","Niva","8","listenblock","37","valence","2000","37857","26pct","2","P173_self_disclosure_pos2.wav"
"2021-12-05","02:38:08","Niva","8","listenblock","38","valence","2000","39874","26pct","2","P173_self_disclosure_pos2.wav"
"2021-12-05","02:38:08","Niva","8","listenblock","39","valence","2000","41892","26pct","2","P173_self_disclosure_pos2.wav"
"2021-12-05","02:38:08","Niva","8","listenblock","40","valence","2000","43909","26pct","2","P173_self_disclosure_pos2.wav"
"2021-12-05","02:38:08","Niva","8","listenblock","41","valence","2000","45925","26pct","2","P173_self_disclosure_pos2.wav"
"2021-12-05","02:38:08","Niva","8","listenblock","42","valence","1355","47298","27pct","2","P173_self_disclosure_pos2.wav"
"2021-12-05","02:38:08","Niva","8","listenblock","43","valence","361","47671","28pct","2","P173_self_disclosure_pos2.wav"
"2021-12-05","02:38:08","Niva","8","listenblock","44","valence","2000","49694","28pct","2","P173_self_disclosure_pos2.wav"
"2021-12-05","02:38:08","Niva","8","listenblock","45","valence","2000","51711","28pct","2","P173_self_disclosure_pos2.wav"
"2021-12-05","02:38:08","Niva","8","listenblock","46","valence","2000","53728","28pct","2","P173_self_disclosure_pos2.wav"
"2021-12-05","02:38:08","Niva","8","listenblock","47","valence","2000","55745","28pct","2","P173_self_disclosure_pos2.wav"
"2021-12-05","02:38:08","Niva","8","listenblock","48","valence","2000","57762","28pct","2","P173_self_disclosure_pos2.wav"
"2021-12-05","02:38:08","Niva","8","listenblock","49","valence","2000","59779","28pct","2","P173_self_disclosure_pos2.wav"
"2021-12-05","02:38:08","Niva","8","listenblock","50","valence","2000","61796","28pct","2","P173_self_disclosure_pos2.wav"
"2021-12-05","02:38:08","Niva","8","listenblock","51","valence","2000","63814","28pct","2","P173_self_disclosure_pos2.wav"
"2021-12-05","02:38:08","Niva","8","listenblock","52","valence","2000","65830","28pct","2","P173_self_disclosure_pos2.wav"
"2021-12-05","02:38:08","Niva","8","listenblock","53","valence","2000","67848","28pct","2","P173_self_disclosure_pos2.wav"
"2021-12-05","02:38:08","Niva","8","listenblock","54","valence","2000","69865","28pct","2","P173_self_disclosure_pos2.wav"
"2021-12-05","02:38:08","Niva","8","listenblock","55","valence","2000","71882","28pct","2","P173_self_disclosure_pos2.wav"
"2021-12-05","02:38:08","Niva","8","listenblock","56","valence","2000","73899","28pct","2","P173_self_disclosure_pos2.wav"
"2021-12-05","02:38:08","Niva","8","listenblock","57","valence","2000","75914","28pct","2","P173_self_disclosure_pos2.wav"
"2021-12-05","02:38:08","Niva","8","listenblock","58","valence","2000","77931","28pct","2","P173_self_disclosure_pos2.wav"
"2021-12-05","02:38:08","Niva","8","listenblock","59","valence","2000","79949","28pct","2","P173_self_disclosure_pos2.wav"
"2021-12-05","02:38:08","Niva","8","listenblock","60","valence","2000","81967","28pct","2","P173_self_disclosure_pos2.wav"
"2021-12-05","02:38:08","Niva","8","listenblock","61","valence","2000","83983","28pct","2","P173_self_disclosure_pos2.wav"
"2021-12-05","02:38:08","Niva","8","listenblock","62","valence","2000","86001","28pct","2","P173_self_disclosure_pos2.wav"
"2021-12-05","02:38:08","Niva","8","listenblock","63","valence","2000","88017","28pct","2","P173_self_disclosure_pos2.wav"
"2021-12-05","02:38:08","Niva","8","listenblock","64","valence","2000","90035","28pct","2","P173_self_disclosure_pos2.wav"
"2021-12-05","02:38:08","Niva","8","listenblock","65","valence","31","90083","27pct","2","P173_self_disclosure_pos2.wav"
"2021-12-05","02:38:08","Niva","8","listenblock","66","valence","279","90381","26pct","2","P173_self_disclosure_pos2.wav"
"2021-12-05","02:38:08","Niva","8","listenblock","67","valence","275","90679","25pct","2","P173_self_disclosure_pos2.wav"
"2021-12-05","02:38:08","Niva","8","listenblock","68","valence","224","90927","24pct","2","P173_self_disclosure_pos2.wav"
"2021-12-05","02:38:08","Niva","8","listenblock","69","valence","327","91279","23pct","2","P173_self_disclosure_pos2.wav"
"2021-12-05","02:38:08","Niva","8","listenblock","70","valence","2000","93303","23pct","2","P173_self_disclosure_pos2.wav"
"2021-12-05","02:38:08","Niva","8","listenblock","71","valence","2000","95321","23pct","2","P173_self_disclosure_pos2.wav"
"2021-12-05","02:38:08","Niva","8","listenblock","72","valence","2000","97338","23pct","2","P173_self_disclosure_pos2.wav"
"2021-12-05","02:38:08","Niva","8","listenblock","73","valence","2000","99355","23pct","2","P173_self_disclosure_pos2.wav"
"2021-12-05","02:38:08","Niva","8","listenblock","74","valence","2000","101372","23pct","2","P173_self_disclosure_pos2.wav"
"2021-12-05","02:38:08","Niva","8","listenblock","75","valence","2000","103391","23pct","2","P173_self_disclosure_pos2.wav"
"2021-12-05","02:38:08","Niva","8","listenblock","76","valence","2000","105407","23pct","2","P173_self_disclosure_pos2.wav"
"2021-12-05","02:38:08","Niva","8","listenblock","77","valence","2000","107424","23pct","2","P173_self_disclosure_pos2.wav"
"2021-12-05","02:38:08","Niva","8","listenblock","78","valence","2000","109442","23pct","2","P173_self_disclosure_pos2.wav"
"2021-12-05","02:38:08","Niva","8","listenblock","79","valence","2000","111458","23pct","2","P173_self_disclosure_pos2.wav"
"2021-12-05","02:38:08","Niva","8","listenblock","80","valence","2000","113476","23pct","2","P173_self_disclosure_pos2.wav"
"2021-12-05","02:38:08","Niva","8","listenblock","81","valence","2000","115494","23pct","2","P173_self_disclosure_pos2.wav"
"2021-12-05","02:38:08","Niva","8","listenblock","82","valence","2000","117511","23pct","2","P173_self_disclosure_pos2.wav"
"2021-12-05","02:38:08","Niva","8","listenblock","83","valence","2000","119528","23pct","2","P173_self_disclosure_pos2.wav"
"2021-12-05","02:38:08","Niva","8","listenblock","84","valence","2000","121545","23pct","2","P173_self_disclosure_pos2.wav"
"2021-12-05","02:38:08","Niva","8","listenblock","85","valence","2000","123562","23pct","2","P173_self_disclosure_pos2.wav"
"2021-12-05","02:38:08","Niva","8","listenblock","86","valence","2000","125579","23pct","2","P173_self_disclosure_pos2.wav"
"2021-12-05","02:38:08","Niva","8","listenblock","87","valence","2000","127596","23pct","2","P173_self_disclosure_pos2.wav"
"2021-12-05","02:38:08","Niva","8","listenblock","88","valence","2000","129614","23pct","2","P173_self_disclosure_pos2.wav"
"2021-12-05","02:38:08","Niva","8","listenblock","89","valence","2000","131630","23pct","2","P173_self_disclosure_pos2.wav"
"2021-12-05","02:38:08","Niva","8","listenblock","90","valence","2000","133648","23pct","2","P173_self_disclosure_pos2.wav"
"2021-12-05","02:38:08","Niva","8","listenblock","91","valence","2000","135665","23pct","2","P173_self_disclosure_pos2.wav"
"2021-12-05","02:38:08","Niva","8","listenblock","92","valence","2000","137682","23pct","2","P173_self_disclosure_pos2.wav"
"2021-12-05","02:38:08","Niva","8","listenblock","93","valence","2000","139699","23pct","2","P173_self_disclosure_pos2.wav"
"2021-12-05","02:38:08","Niva","8","listenblock","94","valence","1217","140933","24pct","2","P173_self_disclosure_pos2.wav"
"2021-12-05","02:38:08","Niva","8","listenblock","95","valence","2000","142950","24pct","2","P173_self_disclosure_pos2.wav"
"2021-12-05","02:38:08","Niva","8","listenblock","96","valence","2000","144967","24pct","2","P173_self_disclosure_pos2.wav"
"2021-12-05","02:38:08","Niva","8","listenblock","97","valence","2000","146984","24pct","2","P173_self_disclosure_pos2.wav"
"2021-12-05","02:38:08","Niva","8","listenblock","98","valence","2000","149001","24pct","2","P173_self_disclosure_pos2.wav"
"2021-12-05","02:38:08","Niva","8","listenblock","99","valence","2000","151019","24pct","2","P173_self_disclosure_pos2.wav"
"2021-12-05","02:38:08","Niva","8","listenblock","100","valence","310","151346","25pct","2","P173_self_disclosure_pos2.wav"
"2021-12-05","02:38:08","Niva","8","listenblock","101","valence","1034","152403","26pct","2","P173_self_disclosure_pos2.wav"
"2021-12-05","02:38:08","Niva","8","listenblock","102","valence","2000","154419","26pct","2","P173_self_disclosure_pos2.wav"
"2021-12-05","02:38:08","Niva","8","listenblock","103","valence","2000","156437","26pct","2","P173_self_disclosure_pos2.wav"
"2021-12-05","02:38:08","Niva","8","listenblock","104","valence","2000","158454","26pct","2","P173_self_disclosure_pos2.wav"
"2021-12-05","02:38:08","Niva","8","listenblock","105","valence","2000","160471","26pct","2","P173_self_disclosure_pos2.wav"
"2021-12-05","02:38:08","Niva","8","listenblock","106","valence","2000","162488","26pct","2","P173_self_disclosure_pos2.wav"
"2021-12-05","02:38:08","Niva","8","listenblock","107","valence","2000","164505","26pct","2","P173_self_disclosure_pos2.wav"
"2021-12-05","02:38:08","Niva","8","listenblock","108","valence","2000","166522","26pct","2","P173_self_disclosure_pos2.wav"
"2021-12-05","02:38:08","Niva","8","listenblock","109","valence","2000","168539","26pct","2","P173_self_disclosure_pos2.wav"
"2021-12-05","02:38:08","Niva","8","listenblock","110","valence","2000","170557","26pct","2","P173_self_disclosure_pos2.wav"
"2021-12-05","02:38:08","Niva","8","listenblock","111","valence","2000","172574","26pct","2","P173_self_disclosure_pos2.wav"
"2021-12-05","02:38:08","Niva","8","listenblock","112","valence","2000","174591","26pct","2","P173_self_disclosure_pos2.wav"
"2021-12-05","02:38:08","Niva","8","listenblock","113","valence","2000","176609","26pct","2","P173_self_disclosure_pos2.wav"
"2021-12-05","02:38:08","Niva","8","listenblock","114","valence","2000","178625","26pct","2","P173_self_disclosure_pos2.wav"
"2021-12-05","02:38:08","Niva","8","listenblock","115","valence","425","179068","25pct","2","P173_self_disclosure_pos2.wav"
"2021-12-05","02:38:08","Niva","8","listenblock","116","valence","396","179489","24pct","2","P173_self_disclosure_pos2.wav"
"2021-12-05","02:38:08","Niva","8","listenblock","117","valence","235","179744","23pct","2","P173_self_disclosure_pos2.wav"
"2021-12-05","02:38:08","Niva","8","listenblock","118","valence","276","180036","22pct","2","P173_self_disclosure_pos2.wav"
"2021-12-05","02:38:08","Niva","10","listenblock","1","valence","2000","2123","25pct","3","P174_self_disclosure_neg2.wav"
"2021-12-05","02:38:08","Niva","10","listenblock","2","valence","2000","4138","25pct","3","P174_self_disclosure_neg2.wav"
"2021-12-05","02:38:08","Niva","10","listenblock","3","valence","2000","6155","25pct","3","P174_self_disclosure_neg2.wav"
"2021-12-05","02:38:08","Niva","10","listenblock","4","valence","2000","8174","25pct","3","P174_self_disclosure_neg2.wav"
"2021-12-05","02:38:08","Niva","10","listenblock","5","valence","2000","10190","25pct","3","P174_self_disclosure_neg2.wav"
"2021-12-05","02:38:08","Niva","10","listenblock","6","valence","2000","12207","25pct","3","P174_self_disclosure_neg2.wav"
"2021-12-05","02:38:08","Niva","10","listenblock","7","valence","2000","14225","25pct","3","P174_self_disclosure_neg2.wav"
"2021-12-05","02:38:08","Niva","10","listenblock","8","valence","2000","16242","25pct","3","P174_self_disclosure_neg2.wav"
"2021-12-05","02:38:08","Niva","10","listenblock","9","valence","2000","18259","25pct","3","P174_self_disclosure_neg2.wav"
"2021-12-05","02:38:08","Niva","10","listenblock","10","valence","2000","20277","25pct","3","P174_self_disclosure_neg2.wav"
"2021-12-05","02:38:08","Niva","10","listenblock","11","valence","2000","22294","25pct","3","P174_self_disclosure_neg2.wav"
"2021-12-05","02:38:08","Niva","10","listenblock","12","valence","2000","24311","25pct","3","P174_self_disclosure_neg2.wav"
"2021-12-05","02:38:08","Niva","10","listenblock","13","valence","2000","26330","25pct","3","P174_self_disclosure_neg2.wav"
"2021-12-05","02:38:08","Niva","10","listenblock","14","valence","2000","28347","25pct","3","P174_self_disclosure_neg2.wav"
"2021-12-05","02:38:08","Niva","10","listenblock","15","valence","1254","29618","24pct","3","P174_self_disclosure_neg2.wav"
"2021-12-05","02:38:08","Niva","10","listenblock","16","valence","174","29805","23pct","3","P174_self_disclosure_neg2.wav"
"2021-12-05","02:38:08","Niva","10","listenblock","17","valence","194","30025","22pct","3","P174_self_disclosure_neg2.wav"
"2021-12-05","02:38:08","Niva","10","listenblock","18","valence","2000","32048","22pct","3","P174_self_disclosure_neg2.wav"
"2021-12-05","02:38:08","Niva","10","listenblock","19","valence","2000","34064","22pct","3","P174_self_disclosure_neg2.wav"
"2021-12-05","02:38:08","Niva","10","listenblock","20","valence","2000","36082","22pct","3","P174_self_disclosure_neg2.wav"
"2021-12-05","02:38:08","Niva","10","listenblock","21","valence","2000","38099","22pct","3","P174_self_disclosure_neg2.wav"
"2021-12-05","02:38:08","Niva","10","listenblock","22","valence","2000","40117","22pct","3","P174_self_disclosure_neg2.wav"
"2021-12-05","02:38:08","Niva","10","listenblock","23","valence","2000","42134","22pct","3","P174_self_disclosure_neg2.wav"
"2021-12-05","02:38:08","Niva","10","listenblock","24","valence","2000","44151","22pct","3","P174_self_disclosure_neg2.wav"
"2021-12-05","02:38:08","Niva","10","listenblock","25","valence","2000","46168","22pct","3","P174_self_disclosure_neg2.wav"
"2021-12-05","02:38:08","Niva","10","listenblock","26","valence","2000","48185","22pct","3","P174_self_disclosure_neg2.wav"
"2021-12-05","02:38:08","Niva","10","listenblock","27","valence","2000","50202","22pct","3","P174_self_disclosure_neg2.wav"
"2021-12-05","02:38:08","Niva","10","listenblock","28","valence","2000","52219","22pct","3","P174_self_disclosure_neg2.wav"
"2021-12-05","02:38:08","Niva","10","listenblock","29","valence","2000","54237","22pct","3","P174_self_disclosure_neg2.wav"
"2021-12-05","02:38:08","Niva","10","listenblock","30","valence","635","54888","23pct","3","P174_self_disclosure_neg2.wav"
"2021-12-05","02:38:08","Niva","10","listenblock","31","valence","363","55267","24pct","3","P174_self_disclosure_neg2.wav"
"2021-12-05","02:38:08","Niva","10","listenblock","32","valence","1675","56962","23pct","3","P174_self_disclosure_neg2.wav"
"2021-12-05","02:38:08","Niva","10","listenblock","33","valence","210","57198","22pct","3","P174_self_disclosure_neg2.wav"
"2021-12-05","02:38:08","Niva","10","listenblock","34","valence","2000","59221","22pct","3","P174_self_disclosure_neg2.wav"
"2021-12-05","02:38:08","Niva","10","listenblock","35","valence","2000","61239","22pct","3","P174_self_disclosure_neg2.wav"
"2021-12-05","02:38:08","Niva","10","listenblock","36","valence","2000","63256","22pct","3","P174_self_disclosure_neg2.wav"
"2021-12-05","02:38:08","Niva","10","listenblock","37","valence","2000","65273","22pct","3","P174_self_disclosure_neg2.wav"
"2021-12-05","02:38:08","Niva","10","listenblock","38","valence","2000","67290","22pct","3","P174_self_disclosure_neg2.wav"
"2021-12-05","02:38:08","Niva","10","listenblock","39","valence","2000","69306","22pct","3","P174_self_disclosure_neg2.wav"
"2021-12-05","02:38:08","Niva","10","listenblock","40","valence","2000","71324","22pct","3","P174_self_disclosure_neg2.wav"
"2021-12-05","02:38:08","Niva","10","listenblock","41","valence","2000","73341","22pct","3","P174_self_disclosure_neg2.wav"
"2021-12-05","02:38:08","Niva","10","listenblock","42","valence","2000","75359","22pct","3","P174_self_disclosure_neg2.wav"
"2021-12-05","02:38:08","Niva","10","listenblock","43","valence","2000","77376","22pct","3","P174_self_disclosure_neg2.wav"
"2021-12-05","02:38:08","Niva","10","listenblock","44","valence","2000","79392","22pct","3","P174_self_disclosure_neg2.wav"
"2021-12-05","02:38:08","Niva","10","listenblock","45","valence","2000","81410","22pct","3","P174_self_disclosure_neg2.wav"
"2021-12-05","02:38:08","Niva","10","listenblock","46","valence","2000","83428","22pct","3","P174_self_disclosure_neg2.wav"
"2021-12-05","02:38:08","Niva","10","listenblock","47","valence","2000","85444","22pct","3","P174_self_disclosure_neg2.wav"
"2021-12-05","02:38:08","Niva","10","listenblock","48","valence","2000","87461","22pct","3","P174_self_disclosure_neg2.wav"
"2021-12-05","02:38:08","Niva","10","listenblock","49","valence","2000","89478","22pct","3","P174_self_disclosure_neg2.wav"
"2021-12-05","02:38:08","Niva","10","listenblock","50","valence","2000","91496","22pct","3","P174_self_disclosure_neg2.wav"
"2021-12-05","02:38:08","Niva","10","listenblock","51","valence","2000","93510","22pct","3","P174_self_disclosure_neg2.wav"
"2021-12-05","02:38:08","Niva","10","listenblock","52","valence","2000","95528","22pct","3","P174_self_disclosure_neg2.wav"
"2021-12-05","02:38:08","Niva","10","listenblock","53","valence","2000","97545","22pct","3","P174_self_disclosure_neg2.wav"
"2021-12-05","02:38:08","Niva","10","listenblock","54","valence","2000","99562","22pct","3","P174_self_disclosure_neg2.wav"
"2021-12-05","02:38:08","Niva","10","listenblock","55","valence","2000","101581","22pct","3","P174_self_disclosure_neg2.wav"
"2021-12-05","02:38:08","Niva","10","listenblock","56","valence","2000","103596","22pct","3","P174_self_disclosure_neg2.wav"
"2021-12-05","02:38:08","Niva","10","listenblock","57","valence","2000","105614","22pct","3","P174_self_disclosure_neg2.wav"
"2021-12-05","02:38:08","Niva","10","listenblock","58","valence","2000","107631","22pct","3","P174_self_disclosure_neg2.wav"
"2021-12-05","02:38:08","Niva","10","listenblock","59","valence","2000","109649","22pct","3","P174_self_disclosure_neg2.wav"
"2021-12-05","02:38:08","Niva","10","listenblock","60","valence","2000","111666","22pct","3","P174_self_disclosure_neg2.wav"
"2021-12-05","02:38:08","Niva","10","listenblock","61","valence","2000","113683","22pct","3","P174_self_disclosure_neg2.wav"
"2021-12-05","02:38:08","Niva","10","listenblock","62","valence","2000","115700","22pct","3","P174_self_disclosure_neg2.wav"
"2021-12-05","02:38:08","Niva","10","listenblock","63","valence","2000","117718","22pct","3","P174_self_disclosure_neg2.wav"
"2021-12-05","02:38:08","Niva","10","listenblock","64","valence","2000","119735","22pct","3","P174_self_disclosure_neg2.wav"
"2021-12-05","02:38:08","Niva","10","listenblock","65","valence","2000","121753","22pct","3","P174_self_disclosure_neg2.wav"
"2021-12-05","02:38:08","Niva","10","listenblock","66","valence","2000","123768","22pct","3","P174_self_disclosure_neg2.wav"
"2021-12-05","02:38:08","Niva","10","listenblock","67","valence","2000","125786","22pct","3","P174_self_disclosure_neg2.wav"
"2021-12-05","02:38:08","Niva","10","listenblock","68","valence","2000","127803","22pct","3","P174_self_disclosure_neg2.wav"
"2021-12-05","02:38:08","Niva","10","listenblock","69","valence","2000","129819","22pct","3","P174_self_disclosure_neg2.wav"
"2021-12-05","02:38:08","Niva","10","listenblock","70","valence","2000","131837","22pct","3","P174_self_disclosure_neg2.wav"
"2021-12-05","02:38:08","Niva","10","listenblock","71","valence","920","132774","21pct","3","P174_self_disclosure_neg2.wav"
"2021-12-05","02:38:08","Niva","10","listenblock","72","valence","240","133028","20pct","3","P174_self_disclosure_neg2.wav"
"2021-12-05","02:38:08","Niva","10","listenblock","73","valence","381","133437","19pct","3","P174_self_disclosure_neg2.wav"
"2021-12-05","02:38:08","Niva","10","listenblock","74","valence","382","133837","18pct","3","P174_self_disclosure_neg2.wav"
"2021-12-05","02:38:08","Niva","10","listenblock","75","valence","239","134094","17pct","3","P174_self_disclosure_neg2.wav"
"2021-12-05","02:38:08","Niva","10","listenblock","76","valence","213","134335","16pct","3","P174_self_disclosure_neg2.wav"
"2021-12-05","02:38:08","Niva","10","listenblock","77","valence","184","134539","15pct","3","P174_self_disclosure_neg2.wav"
"2021-12-05","02:38:08","Niva","10","listenblock","78","valence","2000","136555","15pct","3","P174_self_disclosure_neg2.wav"
"2021-12-05","02:38:08","Niva","10","listenblock","79","valence","59","136632","14pct","3","P174_self_disclosure_neg2.wav"
"2021-12-05","02:38:08","Niva","10","listenblock","80","valence","151","136808","13pct","3","P174_self_disclosure_neg2.wav"
"2021-12-05","02:38:08","Niva","10","listenblock","81","valence","174","136996","12pct","3","P174_self_disclosure_neg2.wav"
"2021-12-05","02:38:08","Niva","10","listenblock","82","valence","171","137195","11pct","3","P174_self_disclosure_neg2.wav"
"2021-12-05","02:38:08","Niva","10","listenblock","83","valence","2000","139207","11pct","3","P174_self_disclosure_neg2.wav"
"2021-12-05","02:38:08","Niva","10","listenblock","84","valence","1401","140625","12pct","3","P174_self_disclosure_neg2.wav"
"2021-12-05","02:38:08","Niva","10","listenblock","85","valence","201","140841","13pct","3","P174_self_disclosure_neg2.wav"
"2021-12-05","02:38:08","Niva","10","listenblock","86","valence","227","141084","14pct","3","P174_self_disclosure_neg2.wav"
"2021-12-05","02:38:08","Niva","10","listenblock","87","valence","212","141321","15pct","3","P174_self_disclosure_neg2.wav"
"2021-12-05","02:38:08","Niva","10","listenblock","88","valence","420","141762","16pct","3","P174_self_disclosure_neg2.wav"
"2021-12-05","02:38:08","Niva","10","listenblock","89","valence","270","142045","17pct","3","P174_self_disclosure_neg2.wav"
"2021-12-05","02:38:08","Niva","10","listenblock","90","valence","262","142321","18pct","3","P174_self_disclosure_neg2.wav"
"2021-12-05","02:38:08","Niva","10","listenblock","91","valence","872","143214","19pct","3","P174_self_disclosure_neg2.wav"
"2021-12-05","02:38:08","Niva","10","listenblock","92","valence","2000","145226","19pct","3","P174_self_disclosure_neg2.wav"
"2021-12-05","02:38:08","Niva","10","listenblock","93","valence","2000","147243","19pct","3","P174_self_disclosure_neg2.wav"
"2021-12-05","02:38:08","Niva","10","listenblock","94","valence","2000","149260","19pct","3","P174_self_disclosure_neg2.wav"
"2021-12-05","02:38:08","Niva","10","listenblock","95","valence","1778","151056","20pct","3","P174_self_disclosure_neg2.wav"
"2021-12-05","02:38:08","Niva","10","listenblock","96","valence","203","151281","21pct","3","P174_self_disclosure_neg2.wav"
"2021-12-05","02:38:08","Niva","10","listenblock","97","valence","208","151503","22pct","3","P174_self_disclosure_neg2.wav"
"2021-12-05","02:38:08","Niva","10","listenblock","98","valence","428","151956","23pct","3","P174_self_disclosure_neg2.wav"
"2021-12-05","02:38:08","Niva","10","listenblock","99","valence","692","152670","24pct","3","P174_self_disclosure_neg2.wav"
"2021-12-05","02:38:08","Niva","10","listenblock","100","valence","234","152929","25pct","3","P174_self_disclosure_neg2.wav"
"2021-12-05","02:38:08","Niva","10","listenblock","101","valence","519","153464","26pct","3","P174_self_disclosure_neg2.wav"
"2021-12-05","02:38:08","Niva","10","listenblock","102","valence","2000","155478","26pct","3","P174_self_disclosure_neg2.wav"
"2021-12-05","02:38:08","Niva","10","listenblock","103","valence","2000","157496","26pct","3","P174_self_disclosure_neg2.wav"
"2021-12-05","02:38:08","Niva","10","listenblock","104","valence","2000","159512","26pct","3","P174_self_disclosure_neg2.wav"
"2021-12-05","02:38:08","Niva","10","listenblock","105","valence","2000","161530","26pct","3","P174_self_disclosure_neg2.wav"
"2021-12-05","02:38:08","Niva","10","listenblock","106","valence","2000","163547","26pct","3","P174_self_disclosure_neg2.wav"
"2021-12-05","02:38:08","Niva","10","listenblock","107","valence","2000","165564","26pct","3","P174_self_disclosure_neg2.wav"
"2021-12-05","02:38:08","Niva","10","listenblock","108","valence","2000","167581","26pct","3","P174_self_disclosure_neg2.wav"
"2021-12-05","02:38:08","Niva","10","listenblock","109","valence","2000","169599","26pct","3","P174_self_disclosure_neg2.wav"
"2021-12-05","02:38:08","Niva","10","listenblock","110","valence","2000","171616","26pct","3","P174_self_disclosure_neg2.wav"
"2021-12-05","02:38:08","Niva","10","listenblock","111","valence","2000","173632","26pct","3","P174_self_disclosure_neg2.wav"
"2021-12-05","02:38:08","Niva","10","listenblock","112","valence","2000","175650","26pct","3","P174_self_disclosure_neg2.wav"
"2021-12-05","02:38:08","Niva","10","listenblock","113","valence","2000","177667","26pct","3","P174_self_disclosure_neg2.wav"
"2021-12-05","02:38:08","Niva","10","listenblock","114","valence","2000","179684","26pct","3","P174_self_disclosure_neg2.wav"
"2021-12-05","02:38:08","Niva","10","listenblock","115","valence","2000","181701","26pct","3","P174_self_disclosure_neg2.wav"
"2022-01-14","10:25:12","Yuritza","2","listenblock","1","valence","2000","2542","25pct","4","P176_self_disclosure_pos2.wav"
"2022-01-14","10:25:12","Yuritza","2","listenblock","2","valence","2000","4559","25pct","4","P176_self_disclosure_pos2.wav"
"2022-01-14","10:25:12","Yuritza","2","listenblock","3","valence","2000","6577","25pct","4","P176_self_disclosure_pos2.wav"
"2022-01-14","10:25:12","Yuritza","2","listenblock","4","valence","1723","8319","26pct","4","P176_self_disclosure_pos2.wav"
"2022-01-14","10:25:12","Yuritza","2","listenblock","5","valence","279","8609","27pct","4","P176_self_disclosure_pos2.wav"
"2022-01-14","10:25:12","Yuritza","2","listenblock","6","valence","189","8819","28pct","4","P176_self_disclosure_pos2.wav"
"2022-01-14","10:25:12","Yuritza","2","listenblock","7","valence","159","8989","29pct","4","P176_self_disclosure_pos2.wav"
"2022-01-14","10:25:12","Yuritza","2","listenblock","8","valence","125","9139","30pct","4","P176_self_disclosure_pos2.wav"
"2022-01-14","10:25:12","Yuritza","2","listenblock","9","valence","165","9329","31pct","4","P176_self_disclosure_pos2.wav"
"2022-01-14","10:25:12","Yuritza","2","listenblock","10","valence","152","9499","32pct","4","P176_self_disclosure_pos2.wav"
"2022-01-14","10:25:12","Yuritza","2","listenblock","11","valence","165","9679","33pct","4","P176_self_disclosure_pos2.wav"
"2022-01-14","10:25:12","Yuritza","2","listenblock","12","valence","2000","11698","33pct","4","P176_self_disclosure_pos2.wav"
"2022-01-14","10:25:12","Yuritza","2","listenblock","13","valence","2000","13716","33pct","4","P176_self_disclosure_pos2.wav"
"2022-01-14","10:25:12","Yuritza","2","listenblock","14","valence","2000","15734","33pct","4","P176_self_disclosure_pos2.wav"
"2022-01-14","10:25:12","Yuritza","2","listenblock","15","valence","1058","16810","34pct","4","P176_self_disclosure_pos2.wav"
"2022-01-14","10:25:12","Yuritza","2","listenblock","16","valence","304","17140","35pct","4","P176_self_disclosure_pos2.wav"
"2022-01-14","10:25:12","Yuritza","2","listenblock","17","valence","2000","19154","35pct","4","P176_self_disclosure_pos2.wav"
"2022-01-14","10:25:12","Yuritza","2","listenblock","18","valence","2000","21171","35pct","4","P176_self_disclosure_pos2.wav"
"2022-01-14","10:25:12","Yuritza","2","listenblock","19","valence","2000","23189","35pct","4","P176_self_disclosure_pos2.wav"
"2022-01-14","10:25:12","Yuritza","2","listenblock","20","valence","2000","25207","35pct","4","P176_self_disclosure_pos2.wav"
"2022-01-14","10:25:12","Yuritza","2","listenblock","21","valence","65","25290","36pct","4","P176_self_disclosure_pos2.wav"
"2022-01-14","10:25:12","Yuritza","2","listenblock","22","valence","242","25550","37pct","4","P176_self_disclosure_pos2.wav"
"2022-01-14","10:25:12","Yuritza","2","listenblock","23","valence","385","25960","38pct","4","P176_self_disclosure_pos2.wav"
"2022-01-14","10:25:12","Yuritza","2","listenblock","24","valence","254","26230","39pct","4","P176_self_disclosure_pos2.wav"
"2022-01-14","10:25:12","Yuritza","2","listenblock","25","valence","181","26440","40pct","4","P176_self_disclosure_pos2.wav"
"2022-01-14","10:25:12","Yuritza","2","listenblock","26","valence","221","26680","41pct","4","P176_self_disclosure_pos2.wav"
"2022-01-14","10:25:12","Yuritza","2","listenblock","27","valence","377","27070","42pct","4","P176_self_disclosure_pos2.wav"
"2022-01-14","10:25:12","Yuritza","2","listenblock","28","valence","267","27360","43pct","4","P176_self_disclosure_pos2.wav"
"2022-01-14","10:25:12","Yuritza","2","listenblock","29","valence","2000","29376","43pct","4","P176_self_disclosure_pos2.wav"
"2022-01-14","10:25:12","Yuritza","2","listenblock","30","valence","2000","31395","43pct","4","P176_self_disclosure_pos2.wav"
"2022-01-14","10:25:12","Yuritza","2","listenblock","31","valence","2000","33413","43pct","4","P176_self_disclosure_pos2.wav"
"2022-01-14","10:25:12","Yuritza","2","listenblock","32","valence","2000","35431","43pct","4","P176_self_disclosure_pos2.wav"
"2022-01-14","10:25:12","Yuritza","2","listenblock","33","valence","2000","37448","43pct","4","P176_self_disclosure_pos2.wav"
"2022-01-14","10:25:12","Yuritza","2","listenblock","34","valence","2000","39467","43pct","4","P176_self_disclosure_pos2.wav"
"2022-01-14","10:25:12","Yuritza","2","listenblock","35","valence","1980","41481","44pct","4","P176_self_disclosure_pos2.wav"
"2022-01-14","10:25:12","Yuritza","2","listenblock","36","valence","228","41731","45pct","4","P176_self_disclosure_pos2.wav"
"2022-01-14","10:25:12","Yuritza","2","listenblock","37","valence","178","41931","46pct","4","P176_self_disclosure_pos2.wav"
"2022-01-14","10:25:12","Yuritza","2","listenblock","38","valence","188","42140","47pct","4","P176_self_disclosure_pos2.wav"
"2022-01-14","10:25:12","Yuritza","2","listenblock","39","valence","617","42770","48pct","4","P176_self_disclosure_pos2.wav"
"2022-01-14","10:25:12","Yuritza","2","listenblock","40","valence","284","43071","49pct","4","P176_self_disclosure_pos2.wav"
"2022-01-14","10:25:12","Yuritza","2","listenblock","41","valence","444","43531","50pct","4","P176_self_disclosure_pos2.wav"
"2022-01-14","10:25:12","Yuritza","2","listenblock","42","valence","2000","45554","50pct","4","P176_self_disclosure_pos2.wav"
"2022-01-14","10:25:12","Yuritza","2","listenblock","43","valence","2000","47572","50pct","4","P176_self_disclosure_pos2.wav"
"2022-01-14","10:25:12","Yuritza","2","listenblock","44","valence","2000","49590","50pct","4","P176_self_disclosure_pos2.wav"
"2022-01-14","10:25:12","Yuritza","2","listenblock","45","valence","2000","51608","50pct","4","P176_self_disclosure_pos2.wav"
"2022-01-14","10:25:12","Yuritza","2","listenblock","46","valence","2000","53626","50pct","4","P176_self_disclosure_pos2.wav"
"2022-01-14","10:25:12","Yuritza","2","listenblock","47","valence","2000","55645","50pct","4","P176_self_disclosure_pos2.wav"
"2022-01-14","10:25:12","Yuritza","2","listenblock","48","valence","2000","57663","50pct","4","P176_self_disclosure_pos2.wav"
"2022-01-14","10:25:12","Yuritza","2","listenblock","49","valence","2000","59681","50pct","4","P176_self_disclosure_pos2.wav"
"2022-01-14","10:25:12","Yuritza","2","listenblock","50","valence","2000","61699","50pct","4","P176_self_disclosure_pos2.wav"
"2022-01-14","10:25:12","Yuritza","2","listenblock","51","valence","2000","63717","50pct","4","P176_self_disclosure_pos2.wav"
"2022-01-14","10:25:12","Yuritza","2","listenblock","52","valence","2000","65735","50pct","4","P176_self_disclosure_pos2.wav"
"2022-01-14","10:25:12","Yuritza","2","listenblock","53","valence","749","66502","49pct","4","P176_self_disclosure_pos2.wav"
"2022-01-14","10:25:12","Yuritza","2","listenblock","54","valence","342","66862","50pct","4","P176_self_disclosure_pos2.wav"
"2022-01-14","10:25:12","Yuritza","2","listenblock","55","valence","2000","68887","50pct","4","P176_self_disclosure_pos2.wav"
"2022-01-14","10:25:12","Yuritza","2","listenblock","56","valence","2000","70905","50pct","4","P176_self_disclosure_pos2.wav"
"2022-01-14","10:25:12","Yuritza","2","listenblock","57","valence","2000","72923","50pct","4","P176_self_disclosure_pos2.wav"
"2022-01-14","10:25:12","Yuritza","2","listenblock","58","valence","2000","74941","50pct","4","P176_self_disclosure_pos2.wav"
"2022-01-14","10:25:12","Yuritza","2","listenblock","59","valence","2000","76958","50pct","4","P176_self_disclosure_pos2.wav"
"2022-01-14","10:25:12","Yuritza","2","listenblock","60","valence","2000","78977","50pct","4","P176_self_disclosure_pos2.wav"
"2022-01-14","10:25:12","Yuritza","2","listenblock","61","valence","2000","80995","50pct","4","P176_self_disclosure_pos2.wav"
"2022-01-14","10:25:12","Yuritza","2","listenblock","62","valence","2000","83013","50pct","4","P176_self_disclosure_pos2.wav"
"2022-01-14","10:25:12","Yuritza","2","listenblock","63","valence","2000","85032","50pct","4","P176_self_disclosure_pos2.wav"
"2022-01-14","10:25:12","Yuritza","2","listenblock","64","valence","2000","87050","50pct","4","P176_self_disclosure_pos2.wav"
"2022-01-14","10:25:12","Yuritza","2","listenblock","65","valence","2000","89067","50pct","4","P176_self_disclosure_pos2.wav"
"2022-01-14","10:25:12","Yuritza","2","listenblock","66","valence","2000","91085","50pct","4","P176_self_disclosure_pos2.wav"
"2022-01-14","10:25:12","Yuritza","2","listenblock","67","valence","2000","93104","50pct","4","P176_self_disclosure_pos2.wav"
"2022-01-14","10:25:12","Yuritza","2","listenblock","68","valence","2000","95121","50pct","4","P176_self_disclosure_pos2.wav"
"2022-01-14","10:25:12","Yuritza","2","listenblock","69","valence","2000","97140","50pct","4","P176_self_disclosure_pos2.wav"
"2022-01-14","10:25:12","Yuritza","2","listenblock","70","valence","2000","99158","50pct","4","P176_self_disclosure_pos2.wav"
"2022-01-14","10:25:12","Yuritza","2","listenblock","71","valence","2000","101176","50pct","4","P176_self_disclosure_pos2.wav"
"2022-01-14","10:25:12","Yuritza","2","listenblock","72","valence","2000","103194","50pct","4","P176_self_disclosure_pos2.wav"
"2022-01-14","10:25:12","Yuritza","2","listenblock","73","valence","2000","105212","50pct","4","P176_self_disclosure_pos2.wav"
"2022-01-14","10:25:12","Yuritza","2","listenblock","74","valence","2000","107230","50pct","4","P176_self_disclosure_pos2.wav"
"2022-01-14","10:25:12","Yuritza","2","listenblock","75","valence","2000","109248","50pct","4","P176_self_disclosure_pos2.wav"
"2022-01-14","10:25:12","Yuritza","2","listenblock","76","valence","2000","111266","50pct","4","P176_self_disclosure_pos2.wav"
"2022-01-14","10:25:12","Yuritza","2","listenblock","77","valence","2000","113284","50pct","4","P176_self_disclosure_pos2.wav"
"2022-01-14","10:25:12","Yuritza","2","listenblock","78","valence","2000","115302","50pct","4","P176_self_disclosure_pos2.wav"
"2022-01-14","10:25:12","Yuritza","2","listenblock","79","valence","2000","117320","50pct","4","P176_self_disclosure_pos2.wav"
"2022-01-14","10:25:12","Yuritza","2","listenblock","80","valence","2000","119338","50pct","4","P176_self_disclosure_pos2.wav"
"2022-01-14","10:25:12","Yuritza","2","listenblock","81","valence","2000","121356","50pct","4","P176_self_disclosure_pos2.wav"
"2022-01-14","10:25:12","Yuritza","2","listenblock","82","valence","2000","123374","50pct","4","P176_self_disclosure_pos2.wav"
"2022-01-14","10:25:12","Yuritza","2","listenblock","83","valence","2000","125393","50pct","4","P176_self_disclosure_pos2.wav"
"2022-01-14","10:25:12","Yuritza","2","listenblock","84","valence","2000","127411","50pct","4","P176_self_disclosure_pos2.wav"
"2022-01-14","10:25:12","Yuritza","2","listenblock","85","valence","2000","129429","50pct","4","P176_self_disclosure_pos2.wav"
"2022-01-14","10:25:12","Yuritza","2","listenblock","86","valence","2000","131447","50pct","4","P176_self_disclosure_pos2.wav"
"2022-01-14","10:25:12","Yuritza","2","listenblock","87","valence","2000","133465","50pct","4","P176_self_disclosure_pos2.wav"
"2022-01-14","10:25:12","Yuritza","2","listenblock","88","valence","2000","135482","50pct","4","P176_self_disclosure_pos2.wav"
"2022-01-14","10:25:12","Yuritza","2","listenblock","89","valence","2000","137500","50pct","4","P176_self_disclosure_pos2.wav"
"2022-01-14","10:25:12","Yuritza","2","listenblock","90","valence","2000","139519","50pct","4","P176_self_disclosure_pos2.wav"
"2022-01-14","10:25:12","Yuritza","2","listenblock","91","valence","2000","141537","50pct","4","P176_self_disclosure_pos2.wav"
"2022-01-14","10:25:12","Yuritza","2","listenblock","92","valence","2000","143555","50pct","4","P176_self_disclosure_pos2.wav"
"2022-01-14","10:25:12","Yuritza","2","listenblock","93","valence","2000","145573","50pct","4","P176_self_disclosure_pos2.wav"
"2022-01-14","10:25:12","Yuritza","2","listenblock","94","valence","2000","147591","50pct","4","P176_self_disclosure_pos2.wav"
"2022-01-14","10:25:12","Yuritza","2","listenblock","95","valence","2000","149609","50pct","4","P176_self_disclosure_pos2.wav"
"2022-01-14","10:25:12","Yuritza","2","listenblock","96","valence","2000","151627","50pct","4","P176_self_disclosure_pos2.wav"
"2022-01-14","10:25:12","Yuritza","2","listenblock","97","valence","2000","153645","50pct","4","P176_self_disclosure_pos2.wav"
"2022-01-14","10:25:12","Yuritza","2","listenblock","98","valence","2000","155663","50pct","4","P176_self_disclosure_pos2.wav"
"2022-01-14","10:25:12","Yuritza","2","listenblock","99","valence","2000","157681","50pct","4","P176_self_disclosure_pos2.wav"
"2022-01-14","10:25:12","Yuritza","2","listenblock","100","valence","2000","159699","50pct","4","P176_self_disclosure_pos2.wav"
"2022-01-14","10:25:12","Yuritza","2","listenblock","101","valence","549","160266","49pct","4","P176_self_disclosure_pos2.wav"
"2022-01-14","10:25:12","Yuritza","2","listenblock","102","valence","262","160546","48pct","4","P176_self_disclosure_pos2.wav"
"2022-01-14","10:25:12","Yuritza","2","listenblock","103","valence","208","160776","47pct","4","P176_self_disclosure_pos2.wav"
"2022-01-14","10:25:12","Yuritza","2","listenblock","104","valence","225","161026","46pct","4","P176_self_disclosure_pos2.wav"
"2022-01-14","10:25:12","Yuritza","2","listenblock","105","valence","494","161545","45pct","4","P176_self_disclosure_pos2.wav"
"2022-01-14","10:25:12","Yuritza","2","listenblock","106","valence","207","161776","44pct","4","P176_self_disclosure_pos2.wav"
"2022-01-14","10:25:12","Yuritza","2","listenblock","107","valence","234","162035","43pct","4","P176_self_disclosure_pos2.wav"
"2022-01-14","10:25:12","Yuritza","2","listenblock","108","valence","214","162266","42pct","4","P176_self_disclosure_pos2.wav"
"2022-01-14","10:25:12","Yuritza","2","listenblock","109","valence","260","162546","41pct","4","P176_self_disclosure_pos2.wav"
"2022-01-14","10:25:12","Yuritza","2","listenblock","110","valence","537","163106","42pct","4","P176_self_disclosure_pos2.wav"
"2022-01-14","10:25:12","Yuritza","2","listenblock","111","valence","216","163336","43pct","4","P176_self_disclosure_pos2.wav"
"2022-01-14","10:25:12","Yuritza","2","listenblock","112","valence","153","163505","44pct","4","P176_self_disclosure_pos2.wav"
"2022-01-14","10:25:12","Yuritza","2","listenblock","113","valence","176","163695","45pct","4","P176_self_disclosure_pos2.wav"
"2022-01-14","10:25:12","Yuritza","2","listenblock","114","valence","186","163906","46pct","4","P176_self_disclosure_pos2.wav"
"2022-01-14","10:25:12","Yuritza","2","listenblock","115","valence","336","164256","47pct","4","P176_self_disclosure_pos2.wav"
"2022-01-14","10:25:12","Yuritza","2","listenblock","116","valence","225","164495","48pct","4","P176_self_disclosure_pos2.wav"
"2022-01-14","10:25:12","Yuritza","2","listenblock","117","valence","175","164696","49pct","4","P176_self_disclosure_pos2.wav"
"2022-01-14","10:25:12","Yuritza","2","listenblock","118","valence","175","164896","50pct","4","P176_self_disclosure_pos2.wav"
"2022-01-14","10:25:12","Yuritza","2","listenblock","119","valence","2000","166921","50pct","4","P176_self_disclosure_pos2.wav"
"2022-01-14","10:25:12","Yuritza","2","listenblock","120","valence","1727","168666","49pct","4","P176_self_disclosure_pos2.wav"
"2022-01-14","10:25:12","Yuritza","2","listenblock","121","valence","386","169076","48pct","4","P176_self_disclosure_pos2.wav"
"2022-01-14","10:25:12","Yuritza","2","listenblock","122","valence","415","169506","47pct","4","P176_self_disclosure_pos2.wav"
"2022-01-14","10:25:12","Yuritza","2","listenblock","123","valence","172","169695","46pct","4","P176_self_disclosure_pos2.wav"
"2022-01-14","10:25:12","Yuritza","2","listenblock","124","valence","2000","171707","46pct","4","P176_self_disclosure_pos2.wav"
"2022-01-14","10:25:12","Yuritza","2","listenblock","125","valence","2000","173725","46pct","4","P176_self_disclosure_pos2.wav"
"2022-01-14","10:25:12","Yuritza","2","listenblock","126","valence","2000","175744","46pct","4","P176_self_disclosure_pos2.wav"
"2022-01-14","10:25:12","Yuritza","2","listenblock","127","valence","2000","177762","46pct","4","P176_self_disclosure_pos2.wav"
"2022-01-14","10:25:12","Yuritza","2","listenblock","128","valence","2000","179780","46pct","4","P176_self_disclosure_pos2.wav"
"2022-01-14","10:25:12","Yuritza","2","listenblock","129","valence","2000","181798","46pct","4","P176_self_disclosure_pos2.wav"
"2022-01-14","10:25:12","Yuritza","4","listenblock","1","valence","2000","2371","25pct","5","P177_self_disclosure_pos1.wav"
"2022-01-14","10:25:12","Yuritza","4","listenblock","2","valence","2000","4389","25pct","5","P177_self_disclosure_pos1.wav"
"2022-01-14","10:25:12","Yuritza","4","listenblock","3","valence","2000","6407","25pct","5","P177_self_disclosure_pos1.wav"
"2022-01-14","10:25:12","Yuritza","4","listenblock","4","valence","2000","8425","25pct","5","P177_self_disclosure_pos1.wav"
"2022-01-14","10:25:12","Yuritza","4","listenblock","5","valence","2000","10443","25pct","5","P177_self_disclosure_pos1.wav"
"2022-01-14","10:25:12","Yuritza","4","listenblock","6","valence","2000","12461","25pct","5","P177_self_disclosure_pos1.wav"
"2022-01-14","10:25:12","Yuritza","4","listenblock","7","valence","2000","14479","25pct","5","P177_self_disclosure_pos1.wav"
"2022-01-14","10:25:12","Yuritza","4","listenblock","8","valence","2000","16497","25pct","5","P177_self_disclosure_pos1.wav"
"2022-01-14","10:25:12","Yuritza","4","listenblock","9","valence","2000","18515","25pct","5","P177_self_disclosure_pos1.wav"
"2022-01-14","10:25:12","Yuritza","4","listenblock","10","valence","2000","20533","25pct","5","P177_self_disclosure_pos1.wav"
"2022-01-14","10:25:12","Yuritza","4","listenblock","11","valence","2000","22551","25pct","5","P177_self_disclosure_pos1.wav"
"2022-01-14","10:25:12","Yuritza","4","listenblock","12","valence","2000","24569","25pct","5","P177_self_disclosure_pos1.wav"
"2022-01-14","10:25:12","Yuritza","4","listenblock","13","valence","2000","26587","25pct","5","P177_self_disclosure_pos1.wav"
"2022-01-14","10:25:12","Yuritza","4","listenblock","14","valence","2000","28605","25pct","5","P177_self_disclosure_pos1.wav"
"2022-01-14","10:25:12","Yuritza","4","listenblock","15","valence","2000","30623","25pct","5","P177_self_disclosure_pos1.wav"
"2022-01-14","10:25:12","Yuritza","4","listenblock","16","valence","2000","32641","25pct","5","P177_self_disclosure_pos1.wav"
"2022-01-14","10:25:12","Yuritza","4","listenblock","17","valence","2000","34659","25pct","5","P177_self_disclosure_pos1.wav"
"2022-01-14","10:25:12","Yuritza","4","listenblock","18","valence","1154","35831","26pct","5","P177_self_disclosure_pos1.wav"
"2022-01-14","10:25:12","Yuritza","4","listenblock","19","valence","376","36221","27pct","5","P177_self_disclosure_pos1.wav"
"2022-01-14","10:25:12","Yuritza","4","listenblock","20","valence","296","36541","28pct","5","P177_self_disclosure_pos1.wav"
"2022-01-14","10:25:12","Yuritza","4","listenblock","21","valence","389","36951","29pct","5","P177_self_disclosure_pos1.wav"
"2022-01-14","10:25:12","Yuritza","4","listenblock","22","valence","1808","38771","30pct","5","P177_self_disclosure_pos1.wav"
"2022-01-14","10:25:12","Yuritza","4","listenblock","23","valence","184","38981","31pct","5","P177_self_disclosure_pos1.wav"
"2022-01-14","10:25:12","Yuritza","4","listenblock","24","valence","2000","40997","31pct","5","P177_self_disclosure_pos1.wav"
"2022-01-14","10:25:12","Yuritza","4","listenblock","25","valence","2000","43016","31pct","5","P177_self_disclosure_pos1.wav"
"2022-01-14","10:25:12","Yuritza","4","listenblock","26","valence","2000","45033","31pct","5","P177_self_disclosure_pos1.wav"
"2022-01-14","10:25:12","Yuritza","4","listenblock","27","valence","2000","47052","31pct","5","P177_self_disclosure_pos1.wav"
"2022-01-14","10:25:12","Yuritza","4","listenblock","28","valence","2000","49070","31pct","5","P177_self_disclosure_pos1.wav"
"2022-01-14","10:25:12","Yuritza","4","listenblock","29","valence","2000","51088","31pct","5","P177_self_disclosure_pos1.wav"
"2022-01-14","10:25:12","Yuritza","4","listenblock","30","valence","0","51118","32pct","5","P177_self_disclosure_pos1.wav"
"2022-01-14","10:25:12","Yuritza","4","listenblock","31","valence","146","51302","33pct","5","P177_self_disclosure_pos1.wav"
"2022-01-14","10:25:12","Yuritza","4","listenblock","32","valence","150","51472","34pct","5","P177_self_disclosure_pos1.wav"
"2022-01-14","10:25:12","Yuritza","4","listenblock","33","valence","173","51662","35pct","5","P177_self_disclosure_pos1.wav"
"2022-01-14","10:25:12","Yuritza","4","listenblock","34","valence","239","51912","36pct","5","P177_self_disclosure_pos1.wav"
"2022-01-14","10:25:12","Yuritza","4","listenblock","35","valence","469","52392","37pct","5","P177_self_disclosure_pos1.wav"
"2022-01-14","10:25:12","Yuritza","4","listenblock","36","valence","565","52971","38pct","5","P177_self_disclosure_pos1.wav"
"2022-01-14","10:25:12","Yuritza","4","listenblock","37","valence","2000","54990","38pct","5","P177_self_disclosure_pos1.wav"
"2022-01-14","10:25:12","Yuritza","4","listenblock","38","valence","2000","57008","38pct","5","P177_self_disclosure_pos1.wav"
"2022-01-14","10:25:12","Yuritza","4","listenblock","39","valence","2000","59026","38pct","5","P177_self_disclosure_pos1.wav"
"2022-01-14","10:25:12","Yuritza","4","listenblock","40","valence","2000","61045","38pct","5","P177_self_disclosure_pos1.wav"
"2022-01-14","10:25:12","Yuritza","4","listenblock","41","valence","2000","63063","38pct","5","P177_self_disclosure_pos1.wav"
"2022-01-14","10:25:12","Yuritza","4","listenblock","42","valence","1682","64762","39pct","5","P177_self_disclosure_pos1.wav"
"2022-01-14","10:25:12","Yuritza","4","listenblock","43","valence","1231","66012","40pct","5","P177_self_disclosure_pos1.wav"
"2022-01-14","10:25:12","Yuritza","4","listenblock","44","valence","300","66331","41pct","5","P177_self_disclosure_pos1.wav"
"2022-01-14","10:25:12","Yuritza","4","listenblock","45","valence","183","66531","42pct","5","P177_self_disclosure_pos1.wav"
"2022-01-14","10:25:12","Yuritza","4","listenblock","46","valence","2000","68549","42pct","5","P177_self_disclosure_pos1.wav"
"2022-01-14","10:25:12","Yuritza","4","listenblock","47","valence","1255","69822","43pct","5","P177_self_disclosure_pos1.wav"
"2022-01-14","10:25:12","Yuritza","4","listenblock","48","valence","2000","71835","43pct","5","P177_self_disclosure_pos1.wav"
"2022-01-14","10:25:12","Yuritza","4","listenblock","49","valence","2000","73853","43pct","5","P177_self_disclosure_pos1.wav"
"2022-01-14","10:25:12","Yuritza","4","listenblock","50","valence","2000","75871","43pct","5","P177_self_disclosure_pos1.wav"
"2022-01-14","10:25:12","Yuritza","4","listenblock","51","valence","2000","77889","43pct","5","P177_self_disclosure_pos1.wav"
"2022-01-14","10:25:12","Yuritza","4","listenblock","52","valence","2000","79907","43pct","5","P177_self_disclosure_pos1.wav"
"2022-01-14","10:25:12","Yuritza","4","listenblock","53","valence","2000","81925","43pct","5","P177_self_disclosure_pos1.wav"
"2022-01-14","10:25:12","Yuritza","4","listenblock","54","valence","2000","83943","43pct","5","P177_self_disclosure_pos1.wav"
"2022-01-14","10:25:12","Yuritza","4","listenblock","55","valence","2000","85961","43pct","5","P177_self_disclosure_pos1.wav"
"2022-01-14","10:25:12","Yuritza","4","listenblock","56","valence","2000","87980","43pct","5","P177_self_disclosure_pos1.wav"
"2022-01-14","10:25:12","Yuritza","4","listenblock","57","valence","2000","89997","43pct","5","P177_self_disclosure_pos1.wav"
"2022-01-14","10:25:12","Yuritza","4","listenblock","58","valence","2000","92016","43pct","5","P177_self_disclosure_pos1.wav"
"2022-01-14","10:25:12","Yuritza","4","listenblock","59","valence","2000","94034","43pct","5","P177_self_disclosure_pos1.wav"
"2022-01-14","10:25:12","Yuritza","4","listenblock","60","valence","2000","96052","43pct","5","P177_self_disclosure_pos1.wav"
"2022-01-14","10:25:12","Yuritza","4","listenblock","61","valence","2000","98070","43pct","5","P177_self_disclosure_pos1.wav"
"2022-01-14","10:25:12","Yuritza","4","listenblock","62","valence","2000","100088","43pct","5","P177_self_disclosure_pos1.wav"
"2022-01-14","10:25:12","Yuritza","4","listenblock","63","valence","2000","102106","43pct","5","P177_self_disclosure_pos1.wav"
"2022-01-14","10:25:12","Yuritza","4","listenblock","64","valence","2000","104124","43pct","5","P177_self_disclosure_pos1.wav"
"2022-01-14","10:25:12","Yuritza","4","listenblock","65","valence","2000","106141","43pct","5","P177_self_disclosure_pos1.wav"
"2022-01-14","10:25:12","Yuritza","4","listenblock","66","valence","2000","108160","43pct","5","P177_self_disclosure_pos1.wav"
"2022-01-14","10:25:12","Yuritza","4","listenblock","67","valence","2000","110178","43pct","5","P177_self_disclosure_pos1.wav"
"2022-01-14","10:25:12","Yuritza","4","listenblock","68","valence","2000","112196","43pct","5","P177_self_disclosure_pos1.wav"
"2022-01-14","10:25:12","Yuritza","4","listenblock","69","valence","2000","114240","43pct","5","P177_self_disclosure_pos1.wav"
"2022-01-14","10:25:12","Yuritza","4","listenblock","70","valence","2000","116282","43pct","5","P177_self_disclosure_pos1.wav"
"2022-01-14","10:25:12","Yuritza","4","listenblock","71","valence","2000","118300","43pct","5","P177_self_disclosure_pos1.wav"
"2022-01-14","10:25:12","Yuritza","4","listenblock","72","valence","2000","120318","43pct","5","P177_self_disclosure_pos1.wav"
"2022-01-14","10:25:12","Yuritza","4","listenblock","73","valence","2000","122336","43pct","5","P177_self_disclosure_pos1.wav"
"2022-01-14","10:25:12","Yuritza","4","listenblock","74","valence","2000","124354","43pct","5","P177_self_disclosure_pos1.wav"
"2022-01-14","10:25:12","Yuritza","4","listenblock","75","valence","1383","125754","44pct","5","P177_self_disclosure_pos1.wav"
"2022-01-14","10:25:12","Yuritza","4","listenblock","76","valence","2000","127773","44pct","5","P177_self_disclosure_pos1.wav"
"2022-01-14","10:25:12","Yuritza","4","listenblock","77","valence","2000","129792","44pct","5","P177_self_disclosure_pos1.wav"
"2022-01-14","10:25:12","Yuritza","4","listenblock","78","valence","2000","131809","44pct","5","P177_self_disclosure_pos1.wav"
"2022-01-14","10:25:12","Yuritza","4","listenblock","79","valence","2000","133828","44pct","5","P177_self_disclosure_pos1.wav"
"2022-01-14","10:25:12","Yuritza","4","listenblock","80","valence","2000","135846","44pct","5","P177_self_disclosure_pos1.wav"
"2022-01-14","10:25:12","Yuritza","4","listenblock","81","valence","2000","137864","44pct","5","P177_self_disclosure_pos1.wav"
"2022-01-14","10:25:12","Yuritza","4","listenblock","82","valence","2000","139882","44pct","5","P177_self_disclosure_pos1.wav"
"2022-01-14","10:25:12","Yuritza","4","listenblock","83","valence","2000","141900","44pct","5","P177_self_disclosure_pos1.wav"
"2022-01-14","10:25:12","Yuritza","4","listenblock","84","valence","2000","143918","44pct","5","P177_self_disclosure_pos1.wav"
"2022-01-14","10:25:12","Yuritza","4","listenblock","85","valence","2000","145936","44pct","5","P177_self_disclosure_pos1.wav"
"2022-01-14","10:25:12","Yuritza","4","listenblock","86","valence","2000","147954","44pct","5","P177_self_disclosure_pos1.wav"
"2022-01-14","10:25:12","Yuritza","4","listenblock","87","valence","2000","149972","44pct","5","P177_self_disclosure_pos1.wav"
"2022-01-14","10:25:12","Yuritza","4","listenblock","88","valence","2000","151991","44pct","5","P177_self_disclosure_pos1.wav"
"2022-01-14","10:25:12","Yuritza","4","listenblock","89","valence","2000","154008","44pct","5","P177_self_disclosure_pos1.wav"
"2022-01-14","10:25:12","Yuritza","4","listenblock","90","valence","2000","156026","44pct","5","P177_self_disclosure_pos1.wav"
"2022-01-14","10:25:12","Yuritza","4","listenblock","91","valence","2000","158045","44pct","5","P177_self_disclosure_pos1.wav"
"2022-01-14","10:25:12","Yuritza","4","listenblock","92","valence","2000","160062","44pct","5","P177_self_disclosure_pos1.wav"
"2022-01-14","10:25:12","Yuritza","4","listenblock","93","valence","2000","162080","44pct","5","P177_self_disclosure_pos1.wav"
"2022-01-14","10:25:12","Yuritza","4","listenblock","94","valence","2000","164099","44pct","5","P177_self_disclosure_pos1.wav"
"2022-01-14","10:25:12","Yuritza","4","listenblock","95","valence","2000","166116","44pct","5","P177_self_disclosure_pos1.wav"
"2022-01-14","10:25:12","Yuritza","4","listenblock","96","valence","2000","168135","44pct","5","P177_self_disclosure_pos1.wav"
"2022-01-14","10:25:12","Yuritza","4","listenblock","97","valence","2000","170153","44pct","5","P177_self_disclosure_pos1.wav"
"2022-01-14","10:25:12","Yuritza","4","listenblock","98","valence","2000","172171","44pct","5","P177_self_disclosure_pos1.wav"
"2022-01-14","10:25:12","Yuritza","4","listenblock","99","valence","2000","174189","44pct","5","P177_self_disclosure_pos1.wav"
