"date","time","subject","blocknum","blockcode","trialnum","trialcode","latency","timeofrating","valence_rating","videoindex","videoname"
"2022-01-07","03:06:11","NivaM","2","listenblock","1","valence","2000","2520","25pct","2","P173_self_disclosure_pos2.wav"
"2022-01-07","03:06:11","NivaM","2","listenblock","2","valence","2000","4554","25pct","2","P173_self_disclosure_pos2.wav"
"2022-01-07","03:06:11","NivaM","2","listenblock","3","valence","2000","6571","25pct","2","P173_self_disclosure_pos2.wav"
"2022-01-07","03:06:11","NivaM","2","listenblock","4","valence","2000","8587","25pct","2","P173_self_disclosure_pos2.wav"
"2022-01-07","03:06:11","NivaM","2","listenblock","5","valence","2000","10605","25pct","2","P173_self_disclosure_pos2.wav"
"2022-01-07","03:06:11","NivaM","2","listenblock","6","valence","2000","12621","25pct","2","P173_self_disclosure_pos2.wav"
"2022-01-07","03:06:11","NivaM","2","listenblock","7","valence","2000","14638","25pct","2","P173_self_disclosure_pos2.wav"
"2022-01-07","03:06:11","NivaM","2","listenblock","8","valence","2000","16654","25pct","2","P173_self_disclosure_pos2.wav"
"2022-01-07","03:06:11","NivaM","2","listenblock","9","valence","2000","18671","25pct","2","P173_self_disclosure_pos2.wav"
"2022-01-07","03:06:11","NivaM","2","listenblock","10","valence","2000","20688","25pct","2","P173_self_disclosure_pos2.wav"
"2022-01-07","03:06:11","NivaM","2","listenblock","11","valence","2000","22704","25pct","2","P173_self_disclosure_pos2.wav"
"2022-01-07","03:06:11","NivaM","2","listenblock","12","valence","2000","24721","25pct","2","P173_self_disclosure_pos2.wav"
"2022-01-07","03:06:11","NivaM","2","listenblock","13","valence","2000","26738","25pct","2","P173_self_disclosure_pos2.wav"
"2022-01-07","03:06:11","NivaM","2","listenblock","14","valence","2000","28754","25pct","2","P173_self_disclosure_pos2.wav"
"2022-01-07","03:06:11","NivaM","2","listenblock","15","valence","2000","30772","25pct","2","P173_self_disclosure_pos2.wav"
"2022-01-07","03:06:11","NivaM","2","listenblock","16","valence","2000","32789","25pct","2","P173_self_disclosure_pos2.wav"
"2022-01-07","03:06:11","NivaM","2","listenblock","17","valence","2000","34806","25pct","2","P173_self_disclosure_pos2.wav"
"2022-01-07","03:06:11","NivaM","2","listenblock","18","valence","2000","36823","25pct","2","P173_self_disclosure_pos2.wav"
"2022-01-07","03:06:11","NivaM","2","listenblock","19","valence","2000","38839","25pct","2","P173_self_disclosure_pos2.wav"
"2022-01-07","03:06:11","NivaM","2","listenblock","20","valence","2000","40856","25pct","2","P173_self_disclosure_pos2.wav"
"2022-01-07","03:06:11","NivaM","2","listenblock","21","valence","2000","42873","25pct","2","P173_self_disclosure_pos2.wav"
"2022-01-07","03:06:11","NivaM","2","listenblock","22","valence","2000","44890","25pct","2","P173_self_disclosure_pos2.wav"
"2022-01-07","03:06:11","NivaM","2","listenblock","23","valence","2000","46906","25pct","2","P173_self_disclosure_pos2.wav"
"2022-01-07","03:06:11","NivaM","2","listenblock","24","valence","2000","48923","25pct","2","P173_self_disclosure_pos2.wav"
"2022-01-07","03:06:11","NivaM","2","listenblock","25","valence","2000","50940","25pct","2","P173_self_disclosure_pos2.wav"
"2022-01-07","03:06:11","NivaM","2","listenblock","26","valence","2000","52956","25pct","2","P173_self_disclosure_pos2.wav"
"2022-01-07","03:06:11","NivaM","2","listenblock","27","valence","2000","54973","25pct","2","P173_self_disclosure_pos2.wav"
"2022-01-07","03:06:11","NivaM","2","listenblock","28","valence","2000","56990","25pct","2","P173_self_disclosure_pos2.wav"
"2022-01-07","03:06:11","NivaM","2","listenblock","29","valence","2000","59007","25pct","2","P173_self_disclosure_pos2.wav"
"2022-01-07","03:06:11","NivaM","2","listenblock","30","valence","2000","61023","25pct","2","P173_self_disclosure_pos2.wav"
"2022-01-07","03:06:11","NivaM","2","listenblock","31","valence","2000","63040","25pct","2","P173_self_disclosure_pos2.wav"
"2022-01-07","03:06:11","NivaM","2","listenblock","32","valence","2000","65057","25pct","2","P173_self_disclosure_pos2.wav"
"2022-01-07","03:06:11","NivaM","2","listenblock","33","valence","2000","67073","25pct","2","P173_self_disclosure_pos2.wav"
"2022-01-07","03:06:11","NivaM","2","listenblock","34","valence","2000","69090","25pct","2","P173_self_disclosure_pos2.wav"
"2022-01-07","03:06:11","NivaM","2","listenblock","35","valence","1395","70502","24pct","2","P173_self_disclosure_pos2.wav"
"2022-01-07","03:06:11","NivaM","2","listenblock","36","valence","169","70693","23pct","2","P173_self_disclosure_pos2.wav"
"2022-01-07","03:06:11","NivaM","2","listenblock","37","valence","465","71173","22pct","2","P173_self_disclosure_pos2.wav"
"2022-01-07","03:06:11","NivaM","2","listenblock","38","valence","2000","73195","22pct","2","P173_self_disclosure_pos2.wav"
"2022-01-07","03:06:11","NivaM","2","listenblock","39","valence","2000","75212","22pct","2","P173_self_disclosure_pos2.wav"
"2022-01-07","03:06:11","NivaM","2","listenblock","40","valence","2000","77229","22pct","2","P173_self_disclosure_pos2.wav"
"2022-01-07","03:06:11","NivaM","2","listenblock","41","valence","2000","79245","22pct","2","P173_self_disclosure_pos2.wav"
"2022-01-07","03:06:11","NivaM","2","listenblock","42","valence","2000","81262","22pct","2","P173_self_disclosure_pos2.wav"
"2022-01-07","03:06:11","NivaM","2","listenblock","43","valence","2000","83279","22pct","2","P173_self_disclosure_pos2.wav"
"2022-01-07","03:06:11","NivaM","2","listenblock","44","valence","2000","85295","22pct","2","P173_self_disclosure_pos2.wav"
"2022-01-07","03:06:11","NivaM","2","listenblock","45","valence","2000","87312","22pct","2","P173_self_disclosure_pos2.wav"
"2022-01-07","03:06:11","NivaM","2","listenblock","46","valence","2000","89328","22pct","2","P173_self_disclosure_pos2.wav"
"2022-01-07","03:06:11","NivaM","2","listenblock","47","valence","2000","91344","22pct","2","P173_self_disclosure_pos2.wav"
"2022-01-07","03:06:11","NivaM","2","listenblock","48","valence","2000","93360","22pct","2","P173_self_disclosure_pos2.wav"
"2022-01-07","03:06:11","NivaM","2","listenblock","49","valence","2000","95377","22pct","2","P173_self_disclosure_pos2.wav"
"2022-01-07","03:06:11","NivaM","2","listenblock","50","valence","2000","97393","22pct","2","P173_self_disclosure_pos2.wav"
"2022-01-07","03:06:11","NivaM","2","listenblock","51","valence","2000","99410","22pct","2","P173_self_disclosure_pos2.wav"
"2022-01-07","03:06:11","NivaM","2","listenblock","52","valence","2000","101425","22pct","2","P173_self_disclosure_pos2.wav"
"2022-01-07","03:06:11","NivaM","2","listenblock","53","valence","2000","103440","22pct","2","P173_self_disclosure_pos2.wav"
"2022-01-07","03:06:11","NivaM","2","listenblock","54","valence","2000","105457","22pct","2","P173_self_disclosure_pos2.wav"
"2022-01-07","03:06:11","NivaM","2","listenblock","55","valence","2000","107473","22pct","2","P173_self_disclosure_pos2.wav"
"2022-01-07","03:06:11","NivaM","2","listenblock","56","valence","2000","109490","22pct","2","P173_self_disclosure_pos2.wav"
"2022-01-07","03:06:11","NivaM","2","listenblock","57","valence","2000","111507","22pct","2","P173_self_disclosure_pos2.wav"
"2022-01-07","03:06:11","NivaM","2","listenblock","58","valence","2000","113523","22pct","2","P173_self_disclosure_pos2.wav"
"2022-01-07","03:06:11","NivaM","2","listenblock","59","valence","2000","115540","22pct","2","P173_self_disclosure_pos2.wav"
"2022-01-07","03:06:11","NivaM","2","listenblock","60","valence","2000","117557","22pct","2","P173_self_disclosure_pos2.wav"
"2022-01-07","03:06:11","NivaM","2","listenblock","61","valence","2000","119573","22pct","2","P173_self_disclosure_pos2.wav"
"2022-01-07","03:06:11","NivaM","2","listenblock","62","valence","2000","121590","22pct","2","P173_self_disclosure_pos2.wav"
"2022-01-07","03:06:11","NivaM","2","listenblock","63","valence","2000","123606","22pct","2","P173_self_disclosure_pos2.wav"
"2022-01-07","03:06:11","NivaM","2","listenblock","64","valence","2000","125623","22pct","2","P173_self_disclosure_pos2.wav"
"2022-01-07","03:06:11","NivaM","2","listenblock","65","valence","2000","127639","22pct","2","P173_self_disclosure_pos2.wav"
"2022-01-07","03:06:11","NivaM","2","listenblock","66","valence","2000","129656","22pct","2","P173_self_disclosure_pos2.wav"
"2022-01-07","03:06:11","NivaM","2","listenblock","67","valence","2000","131673","22pct","2","P173_self_disclosure_pos2.wav"
"2022-01-07","03:06:11","NivaM","2","listenblock","68","valence","2000","133690","22pct","2","P173_self_disclosure_pos2.wav"
"2022-01-07","03:06:11","NivaM","2","listenblock","69","valence","2000","135707","22pct","2","P173_self_disclosure_pos2.wav"
"2022-01-07","03:06:11","NivaM","2","listenblock","70","valence","2000","137723","22pct","2","P173_self_disclosure_pos2.wav"
"2022-01-07","03:06:11","NivaM","2","listenblock","71","valence","2000","139740","22pct","2","P173_self_disclosure_pos2.wav"
"2022-01-07","03:06:11","NivaM","2","listenblock","72","valence","2000","141756","22pct","2","P173_self_disclosure_pos2.wav"
"2022-01-07","03:06:11","NivaM","2","listenblock","73","valence","2000","143773","22pct","2","P173_self_disclosure_pos2.wav"
"2022-01-07","03:06:11","NivaM","2","listenblock","74","valence","2000","145790","22pct","2","P173_self_disclosure_pos2.wav"
"2022-01-07","03:06:11","NivaM","2","listenblock","75","valence","2000","147807","22pct","2","P173_self_disclosure_pos2.wav"
"2022-01-07","03:06:11","NivaM","2","listenblock","76","valence","2000","149823","22pct","2","P173_self_disclosure_pos2.wav"
"2022-01-07","03:06:11","NivaM","2","listenblock","77","valence","2000","151840","22pct","2","P173_self_disclosure_pos2.wav"
"2022-01-07","03:06:11","NivaM","2","listenblock","78","valence","2000","153857","22pct","2","P173_self_disclosure_pos2.wav"
"2022-01-07","03:06:11","NivaM","2","listenblock","79","valence","2000","155873","22pct","2","P173_self_disclosure_pos2.wav"
"2022-01-07","03:06:11","NivaM","2","listenblock","80","valence","2000","157889","22pct","2","P173_self_disclosure_pos2.wav"
"2022-01-07","03:06:11","NivaM","2","listenblock","81","valence","2000","159906","22pct","2","P173_self_disclosure_pos2.wav"
"2022-01-07","03:06:11","NivaM","2","listenblock","82","valence","2000","161923","22pct","2","P173_self_disclosure_pos2.wav"
"2022-01-07","03:06:11","NivaM","2","listenblock","83","valence","2000","163940","22pct","2","P173_self_disclosure_pos2.wav"
"2022-01-07","03:06:11","NivaM","2","listenblock","84","valence","2000","165957","22pct","2","P173_self_disclosure_pos2.wav"
"2022-01-07","03:06:11","NivaM","2","listenblock","85","valence","2000","167973","22pct","2","P173_self_disclosure_pos2.wav"
"2022-01-07","03:06:11","NivaM","2","listenblock","86","valence","280","168270","21pct","2","P173_self_disclosure_pos2.wav"
"2022-01-07","03:06:11","NivaM","2","listenblock","87","valence","96","168388","20pct","2","P173_self_disclosure_pos2.wav"
"2022-01-07","03:06:11","NivaM","2","listenblock","88","valence","141","168550","19pct","2","P173_self_disclosure_pos2.wav"
"2022-01-07","03:06:11","NivaM","2","listenblock","89","valence","156","168732","18pct","2","P173_self_disclosure_pos2.wav"
"2022-01-07","03:06:11","NivaM","2","listenblock","90","valence","184","168943","17pct","2","P173_self_disclosure_pos2.wav"
"2022-01-07","03:06:11","NivaM","2","listenblock","91","valence","167","169126","16pct","2","P173_self_disclosure_pos2.wav"
"2022-01-07","03:06:11","NivaM","2","listenblock","92","valence","2000","171143","16pct","2","P173_self_disclosure_pos2.wav"
"2022-01-07","03:06:11","NivaM","2","listenblock","93","valence","2000","173160","16pct","2","P173_self_disclosure_pos2.wav"
"2022-01-07","03:06:11","NivaM","2","listenblock","94","valence","2000","175177","16pct","2","P173_self_disclosure_pos2.wav"
"2022-01-07","03:06:11","NivaM","2","listenblock","95","valence","2000","177193","16pct","2","P173_self_disclosure_pos2.wav"
"2022-01-07","03:06:11","NivaM","2","listenblock","96","valence","2000","179209","16pct","2","P173_self_disclosure_pos2.wav"
"2022-01-07","03:06:11","NivaM","2","listenblock","97","valence","746","179971","15pct","2","P173_self_disclosure_pos2.wav"
"2022-01-07","03:06:11","NivaM","2","listenblock","98","valence","155","180149","14pct","2","P173_self_disclosure_pos2.wav"
"2022-01-07","03:06:11","NivaM","4","listenblock","1","valence","2000","2135","25pct","1","P165_self_disclosure_neg1.wav"
"2022-01-07","03:06:11","NivaM","4","listenblock","2","valence","2000","4151","25pct","1","P165_self_disclosure_neg1.wav"
"2022-01-07","03:06:11","NivaM","4","listenblock","3","valence","2000","6168","25pct","1","P165_self_disclosure_neg1.wav"
"2022-01-07","03:06:11","NivaM","4","listenblock","4","valence","2000","8184","25pct","1","P165_self_disclosure_neg1.wav"
"2022-01-07","03:06:11","NivaM","4","listenblock","5","valence","2000","10201","25pct","1","P165_self_disclosure_neg1.wav"
"2022-01-07","03:06:11","NivaM","4","listenblock","6","valence","2000","12217","25pct","1","P165_self_disclosure_neg1.wav"
"2022-01-07","03:06:11","NivaM","4","listenblock","7","valence","2000","14234","25pct","1","P165_self_disclosure_neg1.wav"
"2022-01-07","03:06:11","NivaM","4","listenblock","8","valence","2000","16250","25pct","1","P165_self_disclosure_neg1.wav"
"2022-01-07","03:06:11","NivaM","4","listenblock","9","valence","2000","18267","25pct","1","P165_self_disclosure_neg1.wav"
"2022-01-07","03:06:11","NivaM","4","listenblock","10","valence","2000","20284","25pct","1","P165_self_disclosure_neg1.wav"
"2022-01-07","03:06:11","NivaM","4","listenblock","11","valence","2000","22300","25pct","1","P165_self_disclosure_neg1.wav"
"2022-01-07","03:06:11","NivaM","4","listenblock","12","valence","2000","24317","25pct","1","P165_self_disclosure_neg1.wav"
"2022-01-07","03:06:11","NivaM","4","listenblock","13","valence","2000","26334","25pct","1","P165_self_disclosure_neg1.wav"
"2022-01-07","03:06:11","NivaM","4","listenblock","14","valence","2000","28350","25pct","1","P165_self_disclosure_neg1.wav"
"2022-01-07","03:06:11","NivaM","4","listenblock","15","valence","2000","30367","25pct","1","P165_self_disclosure_neg1.wav"
"2022-01-07","03:06:11","NivaM","4","listenblock","16","valence","2000","32383","25pct","1","P165_self_disclosure_neg1.wav"
"2022-01-07","03:06:11","NivaM","4","listenblock","17","valence","2000","34399","25pct","1","P165_self_disclosure_neg1.wav"
"2022-01-07","03:06:11","NivaM","4","listenblock","18","valence","2000","36416","25pct","1","P165_self_disclosure_neg1.wav"
"2022-01-07","03:06:11","NivaM","4","listenblock","19","valence","2000","38433","25pct","1","P165_self_disclosure_neg1.wav"
"2022-01-07","03:06:11","NivaM","4","listenblock","20","valence","2000","40449","25pct","1","P165_self_disclosure_neg1.wav"
"2022-01-07","03:06:11","NivaM","4","listenblock","21","valence","2000","42466","25pct","1","P165_self_disclosure_neg1.wav"
"2022-01-07","03:06:11","NivaM","4","listenblock","22","valence","2000","44481","25pct","1","P165_self_disclosure_neg1.wav"
"2022-01-07","03:06:11","NivaM","4","listenblock","23","valence","2000","46498","25pct","1","P165_self_disclosure_neg1.wav"
"2022-01-07","03:06:11","NivaM","4","listenblock","24","valence","2000","48515","25pct","1","P165_self_disclosure_neg1.wav"
"2022-01-07","03:06:11","NivaM","4","listenblock","25","valence","2000","50532","25pct","1","P165_self_disclosure_neg1.wav"
"2022-01-07","03:06:11","NivaM","4","listenblock","26","valence","2000","52548","25pct","1","P165_self_disclosure_neg1.wav"
"2022-01-07","03:06:11","NivaM","4","listenblock","27","valence","2000","54565","25pct","1","P165_self_disclosure_neg1.wav"
"2022-01-07","03:06:11","NivaM","4","listenblock","28","valence","1767","56348","24pct","1","P165_self_disclosure_neg1.wav"
"2022-01-07","03:06:11","NivaM","4","listenblock","29","valence","144","56514","23pct","1","P165_self_disclosure_neg1.wav"
"2022-01-07","03:06:11","NivaM","4","listenblock","30","valence","179","56716","22pct","1","P165_self_disclosure_neg1.wav"
"2022-01-07","03:06:11","NivaM","4","listenblock","31","valence","416","57153","23pct","1","P165_self_disclosure_neg1.wav"
"2022-01-07","03:06:11","NivaM","4","listenblock","32","valence","209","57385","24pct","1","P165_self_disclosure_neg1.wav"
"2022-01-07","03:06:11","NivaM","4","listenblock","33","valence","545","57949","25pct","1","P165_self_disclosure_neg1.wav"
"2022-01-07","03:06:11","NivaM","4","listenblock","34","valence","213","58181","26pct","1","P165_self_disclosure_neg1.wav"
"2022-01-07","03:06:11","NivaM","4","listenblock","35","valence","240","58441","27pct","1","P165_self_disclosure_neg1.wav"
"2022-01-07","03:06:11","NivaM","4","listenblock","36","valence","297","58765","28pct","1","P165_self_disclosure_neg1.wav"
"2022-01-07","03:06:11","NivaM","4","listenblock","37","valence","271","59057","29pct","1","P165_self_disclosure_neg1.wav"
"2022-01-07","03:06:11","NivaM","4","listenblock","38","valence","2000","61071","29pct","1","P165_self_disclosure_neg1.wav"
"2022-01-07","03:06:11","NivaM","4","listenblock","39","valence","799","61886","30pct","1","P165_self_disclosure_neg1.wav"
"2022-01-07","03:06:11","NivaM","4","listenblock","40","valence","187","62095","31pct","1","P165_self_disclosure_neg1.wav"
"2022-01-07","03:06:11","NivaM","4","listenblock","41","valence","204","62312","32pct","1","P165_self_disclosure_neg1.wav"
"2022-01-07","03:06:11","NivaM","4","listenblock","42","valence","205","62530","33pct","1","P165_self_disclosure_neg1.wav"
"2022-01-07","03:06:11","NivaM","4","listenblock","43","valence","223","62765","34pct","1","P165_self_disclosure_neg1.wav"
"2022-01-07","03:06:11","NivaM","4","listenblock","44","valence","2000","64776","34pct","1","P165_self_disclosure_neg1.wav"
"2022-01-07","03:06:11","NivaM","4","listenblock","45","valence","2000","66792","34pct","1","P165_self_disclosure_neg1.wav"
"2022-01-07","03:06:11","NivaM","4","listenblock","46","valence","668","67476","33pct","1","P165_self_disclosure_neg1.wav"
"2022-01-07","03:06:11","NivaM","4","listenblock","47","valence","1532","69030","32pct","1","P165_self_disclosure_neg1.wav"
"2022-01-07","03:06:11","NivaM","4","listenblock","48","valence","576","69628","31pct","1","P165_self_disclosure_neg1.wav"
"2022-01-07","03:06:11","NivaM","4","listenblock","49","valence","339","69990","30pct","1","P165_self_disclosure_neg1.wav"
"2022-01-07","03:06:11","NivaM","4","listenblock","50","valence","223","70235","29pct","1","P165_self_disclosure_neg1.wav"
"2022-01-07","03:06:11","NivaM","4","listenblock","51","valence","263","70526","28pct","1","P165_self_disclosure_neg1.wav"
"2022-01-07","03:06:11","NivaM","4","listenblock","52","valence","216","70762","27pct","1","P165_self_disclosure_neg1.wav"
"2022-01-07","03:06:11","NivaM","4","listenblock","53","valence","208","70987","26pct","1","P165_self_disclosure_neg1.wav"
"2022-01-07","03:06:11","NivaM","4","listenblock","54","valence","225","71238","25pct","1","P165_self_disclosure_neg1.wav"
"2022-01-07","03:06:11","NivaM","4","listenblock","55","valence","193","71455","24pct","1","P165_self_disclosure_neg1.wav"
"2022-01-07","03:06:11","NivaM","4","listenblock","56","valence","250","71728","23pct","1","P165_self_disclosure_neg1.wav"
"2022-01-07","03:06:11","NivaM","4","listenblock","57","valence","238","71984","22pct","1","P165_self_disclosure_neg1.wav"
"2022-01-07","03:06:11","NivaM","4","listenblock","58","valence","246","72241","21pct","1","P165_self_disclosure_neg1.wav"
"2022-01-07","03:06:11","NivaM","4","listenblock","59","valence","244","72506","20pct","1","P165_self_disclosure_neg1.wav"
"2022-01-07","03:06:11","NivaM","4","listenblock","60","valence","260","72789","19pct","1","P165_self_disclosure_neg1.wav"
"2022-01-07","03:06:11","NivaM","4","listenblock","61","valence","406","73219","18pct","1","P165_self_disclosure_neg1.wav"
"2022-01-07","03:06:11","NivaM","4","listenblock","62","valence","2000","75241","18pct","1","P165_self_disclosure_neg1.wav"
"2022-01-07","03:06:11","NivaM","4","listenblock","63","valence","2000","77258","18pct","1","P165_self_disclosure_neg1.wav"
"2022-01-07","03:06:11","NivaM","4","listenblock","64","valence","2000","79274","18pct","1","P165_self_disclosure_neg1.wav"
"2022-01-07","03:06:11","NivaM","4","listenblock","65","valence","2000","81292","18pct","1","P165_self_disclosure_neg1.wav"
"2022-01-07","03:06:11","NivaM","4","listenblock","66","valence","2000","83308","18pct","1","P165_self_disclosure_neg1.wav"
"2022-01-07","03:06:11","NivaM","4","listenblock","67","valence","2000","85325","18pct","1","P165_self_disclosure_neg1.wav"
"2022-01-07","03:06:11","NivaM","4","listenblock","68","valence","1082","86423","19pct","1","P165_self_disclosure_neg1.wav"
"2022-01-07","03:06:11","NivaM","4","listenblock","69","valence","339","86785","20pct","1","P165_self_disclosure_neg1.wav"
"2022-01-07","03:06:11","NivaM","4","listenblock","70","valence","285","87083","21pct","1","P165_self_disclosure_neg1.wav"
"2022-01-07","03:06:11","NivaM","4","listenblock","71","valence","271","87375","22pct","1","P165_self_disclosure_neg1.wav"
"2022-01-07","03:06:11","NivaM","4","listenblock","72","valence","437","87823","23pct","1","P165_self_disclosure_neg1.wav"
"2022-01-07","03:06:11","NivaM","4","listenblock","73","valence","471","88317","24pct","1","P165_self_disclosure_neg1.wav"
"2022-01-07","03:06:11","NivaM","4","listenblock","74","valence","456","88797","25pct","1","P165_self_disclosure_neg1.wav"
"2022-01-07","03:06:11","NivaM","4","listenblock","75","valence","2000","90820","25pct","1","P165_self_disclosure_neg1.wav"
"2022-01-07","03:06:11","NivaM","4","listenblock","76","valence","2000","92837","25pct","1","P165_self_disclosure_neg1.wav"
"2022-01-07","03:06:11","NivaM","4","listenblock","77","valence","1920","94773","26pct","1","P165_self_disclosure_neg1.wav"
"2022-01-07","03:06:11","NivaM","4","listenblock","78","valence","271","95066","27pct","1","P165_self_disclosure_neg1.wav"
"2022-01-07","03:06:11","NivaM","4","listenblock","79","valence","435","95517","28pct","1","P165_self_disclosure_neg1.wav"
"2022-01-07","03:06:11","NivaM","4","listenblock","80","valence","797","96335","29pct","1","P165_self_disclosure_neg1.wav"
"2022-01-07","03:06:11","NivaM","4","listenblock","81","valence","2000","98358","29pct","1","P165_self_disclosure_neg1.wav"
"2022-01-07","03:06:11","NivaM","4","listenblock","82","valence","2000","100375","29pct","1","P165_self_disclosure_neg1.wav"
"2022-01-07","03:06:11","NivaM","4","listenblock","83","valence","2000","102391","29pct","1","P165_self_disclosure_neg1.wav"
"2022-01-07","03:06:11","NivaM","4","listenblock","84","valence","2000","104408","29pct","1","P165_self_disclosure_neg1.wav"
"2022-01-07","03:06:11","NivaM","4","listenblock","85","valence","1914","106338","28pct","1","P165_self_disclosure_neg1.wav"
"2022-01-07","03:06:11","NivaM","4","listenblock","86","valence","394","106755","27pct","1","P165_self_disclosure_neg1.wav"
"2022-01-07","03:06:11","NivaM","4","listenblock","87","valence","900","107677","26pct","1","P165_self_disclosure_neg1.wav"
"2022-01-07","03:06:11","NivaM","4","listenblock","88","valence","2000","109700","26pct","1","P165_self_disclosure_neg1.wav"
"2022-01-07","03:06:11","NivaM","4","listenblock","89","valence","2000","111717","26pct","1","P165_self_disclosure_neg1.wav"
"2022-01-07","03:06:11","NivaM","4","listenblock","90","valence","2000","113733","26pct","1","P165_self_disclosure_neg1.wav"
"2022-01-07","03:06:11","NivaM","4","listenblock","91","valence","2000","115750","26pct","1","P165_self_disclosure_neg1.wav"
"2022-01-07","03:06:11","NivaM","4","listenblock","92","valence","2000","117767","26pct","1","P165_self_disclosure_neg1.wav"
"2022-01-07","03:06:11","NivaM","4","listenblock","93","valence","2000","119784","26pct","1","P165_self_disclosure_neg1.wav"
"2022-01-07","03:06:11","NivaM","4","listenblock","94","valence","83","119883","25pct","1","P165_self_disclosure_neg1.wav"
"2022-01-07","03:06:11","NivaM","4","listenblock","95","valence","362","120261","24pct","1","P165_self_disclosure_neg1.wav"
"2022-01-07","03:06:11","NivaM","4","listenblock","96","valence","254","120543","23pct","1","P165_self_disclosure_neg1.wav"
"2022-01-07","03:06:11","NivaM","4","listenblock","97","valence","1925","122480","22pct","1","P165_self_disclosure_neg1.wav"
"2022-01-07","03:06:11","NivaM","4","listenblock","98","valence","464","122967","21pct","1","P165_self_disclosure_neg1.wav"
"2022-01-07","03:06:11","NivaM","4","listenblock","99","valence","2000","124989","21pct","1","P165_self_disclosure_neg1.wav"
"2022-01-07","03:06:11","NivaM","4","listenblock","100","valence","2000","127006","21pct","1","P165_self_disclosure_neg1.wav"
"2022-01-07","03:06:11","NivaM","4","listenblock","101","valence","2000","129022","21pct","1","P165_self_disclosure_neg1.wav"
"2022-01-07","03:06:11","NivaM","4","listenblock","102","valence","2000","131039","21pct","1","P165_self_disclosure_neg1.wav"
"2022-01-07","03:06:11","NivaM","4","listenblock","103","valence","2000","133055","21pct","1","P165_self_disclosure_neg1.wav"
"2022-01-07","03:06:11","NivaM","4","listenblock","104","valence","2000","135072","21pct","1","P165_self_disclosure_neg1.wav"
"2022-01-07","03:06:11","NivaM","4","listenblock","105","valence","2000","137088","21pct","1","P165_self_disclosure_neg1.wav"
"2022-01-07","03:06:11","NivaM","4","listenblock","106","valence","2000","139105","21pct","1","P165_self_disclosure_neg1.wav"
"2022-01-07","03:06:11","NivaM","4","listenblock","107","valence","2000","141122","21pct","1","P165_self_disclosure_neg1.wav"
"2022-01-07","03:06:11","NivaM","4","listenblock","108","valence","2000","143139","21pct","1","P165_self_disclosure_neg1.wav"
"2022-01-07","03:06:11","NivaM","4","listenblock","109","valence","2000","145156","21pct","1","P165_self_disclosure_neg1.wav"
"2022-01-07","03:06:11","NivaM","4","listenblock","110","valence","2000","147172","21pct","1","P165_self_disclosure_neg1.wav"
"2022-01-07","03:06:11","NivaM","4","listenblock","111","valence","2000","149189","21pct","1","P165_self_disclosure_neg1.wav"
"2022-01-07","03:06:11","NivaM","4","listenblock","112","valence","2000","151206","21pct","1","P165_self_disclosure_neg1.wav"
"2022-01-07","03:06:11","NivaM","4","listenblock","113","valence","2000","153222","21pct","1","P165_self_disclosure_neg1.wav"
"2022-01-07","03:06:11","NivaM","4","listenblock","114","valence","2000","155238","21pct","1","P165_self_disclosure_neg1.wav"
"2022-01-07","03:06:11","NivaM","4","listenblock","115","valence","2000","157255","21pct","1","P165_self_disclosure_neg1.wav"
"2022-01-07","03:06:11","NivaM","4","listenblock","116","valence","2000","159271","21pct","1","P165_self_disclosure_neg1.wav"
"2022-01-07","03:06:11","NivaM","4","listenblock","117","valence","2000","161291","21pct","1","P165_self_disclosure_neg1.wav"
"2022-01-07","03:06:11","NivaM","4","listenblock","118","valence","2000","163308","21pct","1","P165_self_disclosure_neg1.wav"
"2022-01-07","03:06:11","NivaM","4","listenblock","119","valence","2000","165324","21pct","1","P165_self_disclosure_neg1.wav"
"2022-01-07","03:06:11","NivaM","4","listenblock","120","valence","2000","167340","21pct","1","P165_self_disclosure_neg1.wav"
"2022-01-07","03:06:11","NivaM","4","listenblock","121","valence","2000","169357","21pct","1","P165_self_disclosure_neg1.wav"
"2022-01-07","03:06:11","NivaM","4","listenblock","122","valence","2000","171374","21pct","1","P165_self_disclosure_neg1.wav"
"2022-01-07","03:06:11","NivaM","4","listenblock","123","valence","2000","173391","21pct","1","P165_self_disclosure_neg1.wav"
"2022-01-07","03:06:11","NivaM","4","listenblock","124","valence","2000","175407","21pct","1","P165_self_disclosure_neg1.wav"
"2022-01-07","03:06:11","NivaM","4","listenblock","125","valence","2000","177424","21pct","1","P165_self_disclosure_neg1.wav"
"2022-01-07","03:06:11","NivaM","4","listenblock","126","valence","2000","179440","21pct","1","P165_self_disclosure_neg1.wav"
"2022-01-07","03:06:11","NivaM","4","listenblock","127","valence","2000","181457","21pct","1","P165_self_disclosure_neg1.wav"
"2022-01-07","03:06:11","NivaM","6","listenblock","1","valence","2000","2135","25pct","4","P176_self_disclosure_pos2.wav"
"2022-01-07","03:06:11","NivaM","6","listenblock","2","valence","2000","4152","25pct","4","P176_self_disclosure_pos2.wav"
"2022-01-07","03:06:11","NivaM","6","listenblock","3","valence","2000","6168","25pct","4","P176_self_disclosure_pos2.wav"
"2022-01-07","03:06:11","NivaM","6","listenblock","4","valence","2000","8185","25pct","4","P176_self_disclosure_pos2.wav"
"2022-01-07","03:06:11","NivaM","6","listenblock","5","valence","73","8274","24pct","4","P176_self_disclosure_pos2.wav"
"2022-01-07","03:06:11","NivaM","6","listenblock","6","valence","442","8725","23pct","4","P176_self_disclosure_pos2.wav"
"2022-01-07","03:06:11","NivaM","6","listenblock","7","valence","421","9169","22pct","4","P176_self_disclosure_pos2.wav"
"2022-01-07","03:06:11","NivaM","6","listenblock","8","valence","259","9450","21pct","4","P176_self_disclosure_pos2.wav"
"2022-01-07","03:06:11","NivaM","6","listenblock","9","valence","211","9685","20pct","4","P176_self_disclosure_pos2.wav"
"2022-01-07","03:06:11","NivaM","6","listenblock","10","valence","259","9966","19pct","4","P176_self_disclosure_pos2.wav"
"2022-01-07","03:06:11","NivaM","6","listenblock","11","valence","272","10263","18pct","4","P176_self_disclosure_pos2.wav"
"2022-01-07","03:06:11","NivaM","6","listenblock","12","valence","221","10496","17pct","4","P176_self_disclosure_pos2.wav"
"2022-01-07","03:06:11","NivaM","6","listenblock","13","valence","540","11048","16pct","4","P176_self_disclosure_pos2.wav"
"2022-01-07","03:06:11","NivaM","6","listenblock","14","valence","272","11341","15pct","4","P176_self_disclosure_pos2.wav"
"2022-01-07","03:06:11","NivaM","6","listenblock","15","valence","352","11721","14pct","4","P176_self_disclosure_pos2.wav"
"2022-01-07","03:06:11","NivaM","6","listenblock","16","valence","2000","13745","14pct","4","P176_self_disclosure_pos2.wav"
"2022-01-07","03:06:11","NivaM","6","listenblock","17","valence","1739","15500","15pct","4","P176_self_disclosure_pos2.wav"
"2022-01-07","03:06:11","NivaM","6","listenblock","18","valence","298","15821","16pct","4","P176_self_disclosure_pos2.wav"
"2022-01-07","03:06:11","NivaM","6","listenblock","19","valence","381","16217","17pct","4","P176_self_disclosure_pos2.wav"
"2022-01-07","03:06:11","NivaM","6","listenblock","20","valence","209","16448","18pct","4","P176_self_disclosure_pos2.wav"
"2022-01-07","03:06:11","NivaM","6","listenblock","21","valence","275","16748","19pct","4","P176_self_disclosure_pos2.wav"
"2022-01-07","03:06:11","NivaM","6","listenblock","22","valence","1671","18444","20pct","4","P176_self_disclosure_pos2.wav"
"2022-01-07","03:06:11","NivaM","6","listenblock","23","valence","305","18771","21pct","4","P176_self_disclosure_pos2.wav"
"2022-01-07","03:06:11","NivaM","6","listenblock","24","valence","341","19135","22pct","4","P176_self_disclosure_pos2.wav"
"2022-01-07","03:06:11","NivaM","6","listenblock","25","valence","317","19474","23pct","4","P176_self_disclosure_pos2.wav"
"2022-01-07","03:06:11","NivaM","6","listenblock","26","valence","357","19859","24pct","4","P176_self_disclosure_pos2.wav"
"2022-01-07","03:06:11","NivaM","6","listenblock","27","valence","2000","21882","24pct","4","P176_self_disclosure_pos2.wav"
"2022-01-07","03:06:11","NivaM","6","listenblock","28","valence","518","22415","25pct","4","P176_self_disclosure_pos2.wav"
"2022-01-07","03:06:11","NivaM","6","listenblock","29","valence","228","22665","26pct","4","P176_self_disclosure_pos2.wav"
"2022-01-07","03:06:11","NivaM","6","listenblock","30","valence","247","22935","27pct","4","P176_self_disclosure_pos2.wav"
"2022-01-07","03:06:11","NivaM","6","listenblock","31","valence","239","23192","28pct","4","P176_self_disclosure_pos2.wav"
"2022-01-07","03:06:11","NivaM","6","listenblock","32","valence","267","23472","29pct","4","P176_self_disclosure_pos2.wav"
"2022-01-07","03:06:11","NivaM","6","listenblock","33","valence","533","24021","30pct","4","P176_self_disclosure_pos2.wav"
"2022-01-07","03:06:11","NivaM","6","listenblock","34","valence","370","24413","31pct","4","P176_self_disclosure_pos2.wav"
"2022-01-07","03:06:11","NivaM","6","listenblock","35","valence","2000","26436","31pct","4","P176_self_disclosure_pos2.wav"
"2022-01-07","03:06:11","NivaM","6","listenblock","36","valence","2000","28452","31pct","4","P176_self_disclosure_pos2.wav"
"2022-01-07","03:06:11","NivaM","6","listenblock","37","valence","2000","30469","31pct","4","P176_self_disclosure_pos2.wav"
"2022-01-07","03:06:11","NivaM","6","listenblock","38","valence","2000","32485","31pct","4","P176_self_disclosure_pos2.wav"
"2022-01-07","03:06:11","NivaM","6","listenblock","39","valence","643","33144","32pct","4","P176_self_disclosure_pos2.wav"
"2022-01-07","03:06:11","NivaM","6","listenblock","40","valence","2000","35167","32pct","4","P176_self_disclosure_pos2.wav"
"2022-01-07","03:06:11","NivaM","6","listenblock","41","valence","2000","37184","32pct","4","P176_self_disclosure_pos2.wav"
"2022-01-07","03:06:11","NivaM","6","listenblock","42","valence","2000","39200","32pct","4","P176_self_disclosure_pos2.wav"
"2022-01-07","03:06:11","NivaM","6","listenblock","43","valence","395","39611","31pct","4","P176_self_disclosure_pos2.wav"
"2022-01-07","03:06:11","NivaM","6","listenblock","44","valence","311","39944","30pct","4","P176_self_disclosure_pos2.wav"
"2022-01-07","03:06:11","NivaM","6","listenblock","45","valence","304","40281","29pct","4","P176_self_disclosure_pos2.wav"
"2022-01-07","03:06:11","NivaM","6","listenblock","46","valence","432","40726","28pct","4","P176_self_disclosure_pos2.wav"
"2022-01-07","03:06:11","NivaM","6","listenblock","47","valence","254","41002","27pct","4","P176_self_disclosure_pos2.wav"
"2022-01-07","03:06:11","NivaM","6","listenblock","48","valence","223","41243","26pct","4","P176_self_disclosure_pos2.wav"
"2022-01-07","03:06:11","NivaM","6","listenblock","49","valence","258","41511","25pct","4","P176_self_disclosure_pos2.wav"
"2022-01-07","03:06:11","NivaM","6","listenblock","50","valence","209","41747","24pct","4","P176_self_disclosure_pos2.wav"
"2022-01-07","03:06:11","NivaM","6","listenblock","51","valence","188","41958","23pct","4","P176_self_disclosure_pos2.wav"
"2022-01-07","03:06:11","NivaM","6","listenblock","52","valence","359","42330","22pct","4","P176_self_disclosure_pos2.wav"
"2022-01-07","03:06:11","NivaM","6","listenblock","53","valence","2000","44353","22pct","4","P176_self_disclosure_pos2.wav"
"2022-01-07","03:06:11","NivaM","6","listenblock","54","valence","2000","46370","22pct","4","P176_self_disclosure_pos2.wav"
"2022-01-07","03:06:11","NivaM","6","listenblock","55","valence","2000","48386","22pct","4","P176_self_disclosure_pos2.wav"
"2022-01-07","03:06:11","NivaM","6","listenblock","56","valence","2000","50403","22pct","4","P176_self_disclosure_pos2.wav"
"2022-01-07","03:06:11","NivaM","6","listenblock","57","valence","2000","52419","22pct","4","P176_self_disclosure_pos2.wav"
"2022-01-07","03:06:11","NivaM","6","listenblock","58","valence","2000","54435","22pct","4","P176_self_disclosure_pos2.wav"
"2022-01-07","03:06:11","NivaM","6","listenblock","59","valence","2000","56452","22pct","4","P176_self_disclosure_pos2.wav"
"2022-01-07","03:06:11","NivaM","6","listenblock","60","valence","2000","58468","22pct","4","P176_self_disclosure_pos2.wav"
"2022-01-07","03:06:11","NivaM","6","listenblock","61","valence","2000","60484","22pct","4","P176_self_disclosure_pos2.wav"
"2022-01-07","03:06:11","NivaM","6","listenblock","62","valence","2000","62501","22pct","4","P176_self_disclosure_pos2.wav"
"2022-01-07","03:06:11","NivaM","6","listenblock","63","valence","2000","64518","22pct","4","P176_self_disclosure_pos2.wav"
"2022-01-07","03:06:11","NivaM","6","listenblock","64","valence","2000","66535","22pct","4","P176_self_disclosure_pos2.wav"
"2022-01-07","03:06:11","NivaM","6","listenblock","65","valence","2000","68551","22pct","4","P176_self_disclosure_pos2.wav"
"2022-01-07","03:06:11","NivaM","6","listenblock","66","valence","2000","70568","22pct","4","P176_self_disclosure_pos2.wav"
"2022-01-07","03:06:11","NivaM","6","listenblock","67","valence","2000","72584","22pct","4","P176_self_disclosure_pos2.wav"
"2022-01-07","03:06:11","NivaM","6","listenblock","68","valence","2000","74601","22pct","4","P176_self_disclosure_pos2.wav"
"2022-01-07","03:06:11","NivaM","6","listenblock","69","valence","2000","76618","22pct","4","P176_self_disclosure_pos2.wav"
"2022-01-07","03:06:11","NivaM","6","listenblock","70","valence","2000","78634","22pct","4","P176_self_disclosure_pos2.wav"
"2022-01-07","03:06:11","NivaM","6","listenblock","71","valence","2000","80651","22pct","4","P176_self_disclosure_pos2.wav"
"2022-01-07","03:06:11","NivaM","6","listenblock","72","valence","2000","82667","22pct","4","P176_self_disclosure_pos2.wav"
"2022-01-07","03:06:11","NivaM","6","listenblock","73","valence","2000","84684","22pct","4","P176_self_disclosure_pos2.wav"
"2022-01-07","03:06:11","NivaM","6","listenblock","74","valence","2000","86700","22pct","4","P176_self_disclosure_pos2.wav"
"2022-01-07","03:06:11","NivaM","6","listenblock","75","valence","2000","88717","22pct","4","P176_self_disclosure_pos2.wav"
"2022-01-07","03:06:11","NivaM","6","listenblock","76","valence","2000","90734","22pct","4","P176_self_disclosure_pos2.wav"
"2022-01-07","03:06:11","NivaM","6","listenblock","77","valence","2000","92751","22pct","4","P176_self_disclosure_pos2.wav"
"2022-01-07","03:06:11","NivaM","6","listenblock","78","valence","2000","94767","22pct","4","P176_self_disclosure_pos2.wav"
"2022-01-07","03:06:11","NivaM","6","listenblock","79","valence","2000","96784","22pct","4","P176_self_disclosure_pos2.wav"
"2022-01-07","03:06:11","NivaM","6","listenblock","80","valence","2000","98801","22pct","4","P176_self_disclosure_pos2.wav"
"2022-01-07","03:06:11","NivaM","6","listenblock","81","valence","2000","100818","22pct","4","P176_self_disclosure_pos2.wav"
"2022-01-07","03:06:11","NivaM","6","listenblock","82","valence","2000","102834","22pct","4","P176_self_disclosure_pos2.wav"
"2022-01-07","03:06:11","NivaM","6","listenblock","83","valence","2000","104851","22pct","4","P176_self_disclosure_pos2.wav"
"2022-01-07","03:06:11","NivaM","6","listenblock","84","valence","1929","106796","23pct","4","P176_self_disclosure_pos2.wav"
"2022-01-07","03:06:11","NivaM","6","listenblock","85","valence","267","107085","24pct","4","P176_self_disclosure_pos2.wav"
"2022-01-07","03:06:11","NivaM","6","listenblock","86","valence","309","107415","25pct","4","P176_self_disclosure_pos2.wav"
"2022-01-07","03:06:11","NivaM","6","listenblock","87","valence","471","107901","26pct","4","P176_self_disclosure_pos2.wav"
"2022-01-07","03:06:11","NivaM","6","listenblock","88","valence","339","108262","27pct","4","P176_self_disclosure_pos2.wav"
"2022-01-07","03:06:11","NivaM","6","listenblock","89","valence","2000","110292","27pct","4","P176_self_disclosure_pos2.wav"
"2022-01-07","03:06:11","NivaM","6","listenblock","90","valence","2000","112308","27pct","4","P176_self_disclosure_pos2.wav"
"2022-01-07","03:06:11","NivaM","6","listenblock","91","valence","2000","114325","27pct","4","P176_self_disclosure_pos2.wav"
"2022-01-07","03:06:11","NivaM","6","listenblock","92","valence","2000","116341","27pct","4","P176_self_disclosure_pos2.wav"
"2022-01-07","03:06:11","NivaM","6","listenblock","93","valence","2000","118358","27pct","4","P176_self_disclosure_pos2.wav"
"2022-01-07","03:06:11","NivaM","6","listenblock","94","valence","2000","120374","27pct","4","P176_self_disclosure_pos2.wav"
"2022-01-07","03:06:11","NivaM","6","listenblock","95","valence","2000","122391","27pct","4","P176_self_disclosure_pos2.wav"
"2022-01-07","03:06:11","NivaM","6","listenblock","96","valence","2000","124408","27pct","4","P176_self_disclosure_pos2.wav"
"2022-01-07","03:06:11","NivaM","6","listenblock","97","valence","2000","126424","27pct","4","P176_self_disclosure_pos2.wav"
"2022-01-07","03:06:11","NivaM","6","listenblock","98","valence","2000","128441","27pct","4","P176_self_disclosure_pos2.wav"
"2022-01-07","03:06:11","NivaM","6","listenblock","99","valence","2000","130457","27pct","4","P176_self_disclosure_pos2.wav"
"2022-01-07","03:06:11","NivaM","6","listenblock","100","valence","2000","132474","27pct","4","P176_self_disclosure_pos2.wav"
"2022-01-07","03:06:11","NivaM","6","listenblock","101","valence","2000","134491","27pct","4","P176_self_disclosure_pos2.wav"
"2022-01-07","03:06:11","NivaM","6","listenblock","102","valence","1669","136175","26pct","4","P176_self_disclosure_pos2.wav"
"2022-01-07","03:06:11","NivaM","6","listenblock","103","valence","263","136462","25pct","4","P176_self_disclosure_pos2.wav"
"2022-01-07","03:06:11","NivaM","6","listenblock","104","valence","250","136731","24pct","4","P176_self_disclosure_pos2.wav"
"2022-01-07","03:06:11","NivaM","6","listenblock","105","valence","243","136997","23pct","4","P176_self_disclosure_pos2.wav"
"2022-01-07","03:06:11","NivaM","6","listenblock","106","valence","644","137665","24pct","4","P176_self_disclosure_pos2.wav"
"2022-01-07","03:06:11","NivaM","6","listenblock","107","valence","289","137976","25pct","4","P176_self_disclosure_pos2.wav"
"2022-01-07","03:06:11","NivaM","6","listenblock","108","valence","246","138238","26pct","4","P176_self_disclosure_pos2.wav"
"2022-01-07","03:06:11","NivaM","6","listenblock","109","valence","276","138535","27pct","4","P176_self_disclosure_pos2.wav"
"2022-01-07","03:06:11","NivaM","6","listenblock","110","valence","529","139093","26pct","4","P176_self_disclosure_pos2.wav"
"2022-01-07","03:06:11","NivaM","6","listenblock","111","valence","291","139406","25pct","4","P176_self_disclosure_pos2.wav"
"2022-01-07","03:06:11","NivaM","6","listenblock","112","valence","285","139716","24pct","4","P176_self_disclosure_pos2.wav"
"2022-01-07","03:06:11","NivaM","6","listenblock","113","valence","287","140027","23pct","4","P176_self_disclosure_pos2.wav"
"2022-01-07","03:06:11","NivaM","6","listenblock","114","valence","1232","141281","22pct","4","P176_self_disclosure_pos2.wav"
"2022-01-07","03:06:11","NivaM","6","listenblock","115","valence","2000","143304","22pct","4","P176_self_disclosure_pos2.wav"
"2022-01-07","03:06:11","NivaM","6","listenblock","116","valence","2000","145321","22pct","4","P176_self_disclosure_pos2.wav"
"2022-01-07","03:06:11","NivaM","6","listenblock","117","valence","2000","147337","22pct","4","P176_self_disclosure_pos2.wav"
"2022-01-07","03:06:11","NivaM","6","listenblock","118","valence","2000","149354","22pct","4","P176_self_disclosure_pos2.wav"
"2022-01-07","03:06:11","NivaM","6","listenblock","119","valence","2000","151371","22pct","4","P176_self_disclosure_pos2.wav"
"2022-01-07","03:06:11","NivaM","6","listenblock","120","valence","2000","153388","22pct","4","P176_self_disclosure_pos2.wav"
"2022-01-07","03:06:11","NivaM","6","listenblock","121","valence","2000","155405","22pct","4","P176_self_disclosure_pos2.wav"
"2022-01-07","03:06:11","NivaM","6","listenblock","122","valence","2000","157422","22pct","4","P176_self_disclosure_pos2.wav"
"2022-01-07","03:06:11","NivaM","6","listenblock","123","valence","2000","159438","22pct","4","P176_self_disclosure_pos2.wav"
"2022-01-07","03:06:11","NivaM","6","listenblock","124","valence","2000","161454","22pct","4","P176_self_disclosure_pos2.wav"
"2022-01-07","03:06:11","NivaM","6","listenblock","125","valence","2000","163471","22pct","4","P176_self_disclosure_pos2.wav"
"2022-01-07","03:06:11","NivaM","6","listenblock","126","valence","617","164104","21pct","4","P176_self_disclosure_pos2.wav"
"2022-01-07","03:06:11","NivaM","6","listenblock","127","valence","345","164471","20pct","4","P176_self_disclosure_pos2.wav"
"2022-01-07","03:06:11","NivaM","6","listenblock","128","valence","742","165235","19pct","4","P176_self_disclosure_pos2.wav"
"2022-01-07","03:06:11","NivaM","6","listenblock","129","valence","261","165517","18pct","4","P176_self_disclosure_pos2.wav"
"2022-01-07","03:06:11","NivaM","6","listenblock","130","valence","169","165710","17pct","4","P176_self_disclosure_pos2.wav"
"2022-01-07","03:06:11","NivaM","6","listenblock","131","valence","273","165997","16pct","4","P176_self_disclosure_pos2.wav"
"2022-01-07","03:06:11","NivaM","6","listenblock","132","valence","217","166224","15pct","4","P176_self_disclosure_pos2.wav"
"2022-01-07","03:06:11","NivaM","6","listenblock","133","valence","213","166454","14pct","4","P176_self_disclosure_pos2.wav"
"2022-01-07","03:06:11","NivaM","6","listenblock","134","valence","219","166692","13pct","4","P176_self_disclosure_pos2.wav"
"2022-01-07","03:06:11","NivaM","6","listenblock","135","valence","241","166949","12pct","4","P176_self_disclosure_pos2.wav"
"2022-01-07","03:06:11","NivaM","6","listenblock","136","valence","2000","168975","12pct","4","P176_self_disclosure_pos2.wav"
"2022-01-07","03:06:11","NivaM","6","listenblock","137","valence","2000","170992","12pct","4","P176_self_disclosure_pos2.wav"
"2022-01-07","03:06:11","NivaM","6","listenblock","138","valence","2000","173008","12pct","4","P176_self_disclosure_pos2.wav"
"2022-01-07","03:06:11","NivaM","6","listenblock","139","valence","2000","175025","12pct","4","P176_self_disclosure_pos2.wav"
"2022-01-07","03:06:11","NivaM","6","listenblock","140","valence","2000","177041","12pct","4","P176_self_disclosure_pos2.wav"
"2022-01-07","03:06:11","NivaM","6","listenblock","141","valence","2000","179058","12pct","4","P176_self_disclosure_pos2.wav"
"2022-01-07","03:06:11","NivaM","6","listenblock","142","valence","2000","181074","12pct","4","P176_self_disclosure_pos2.wav"
"2022-01-07","03:06:11","NivaM","8","listenblock","1","valence","2000","2561","25pct","3","P174_self_disclosure_neg2.wav"
"2022-01-07","03:06:11","NivaM","8","listenblock","2","valence","2000","4577","25pct","3","P174_self_disclosure_neg2.wav"
"2022-01-07","03:06:11","NivaM","8","listenblock","3","valence","2000","6594","25pct","3","P174_self_disclosure_neg2.wav"
"2022-01-07","03:06:11","NivaM","8","listenblock","4","valence","2000","8610","25pct","3","P174_self_disclosure_neg2.wav"
"2022-01-07","03:06:11","NivaM","8","listenblock","5","valence","2000","10627","25pct","3","P174_self_disclosure_neg2.wav"
"2022-01-07","03:06:11","NivaM","8","listenblock","6","valence","2000","12644","25pct","3","P174_self_disclosure_neg2.wav"
"2022-01-07","03:06:11","NivaM","8","listenblock","7","valence","2000","14660","25pct","3","P174_self_disclosure_neg2.wav"
"2022-01-07","03:06:11","NivaM","8","listenblock","8","valence","2000","16676","25pct","3","P174_self_disclosure_neg2.wav"
"2022-01-07","03:06:11","NivaM","8","listenblock","9","valence","2000","18692","25pct","3","P174_self_disclosure_neg2.wav"
"2022-01-07","03:06:11","NivaM","8","listenblock","10","valence","2000","20709","25pct","3","P174_self_disclosure_neg2.wav"
"2022-01-07","03:06:11","NivaM","8","listenblock","11","valence","2000","22726","25pct","3","P174_self_disclosure_neg2.wav"
"2022-01-07","03:06:11","NivaM","8","listenblock","12","valence","2000","24743","25pct","3","P174_self_disclosure_neg2.wav"
"2022-01-07","03:06:11","NivaM","8","listenblock","13","valence","2000","26759","25pct","3","P174_self_disclosure_neg2.wav"
"2022-01-07","03:06:11","NivaM","8","listenblock","14","valence","2000","28776","25pct","3","P174_self_disclosure_neg2.wav"
"2022-01-07","03:06:11","NivaM","8","listenblock","15","valence","2000","30792","25pct","3","P174_self_disclosure_neg2.wav"
"2022-01-07","03:06:11","NivaM","8","listenblock","16","valence","2000","32808","25pct","3","P174_self_disclosure_neg2.wav"
"2022-01-07","03:06:11","NivaM","8","listenblock","17","valence","2000","34825","25pct","3","P174_self_disclosure_neg2.wav"
"2022-01-07","03:06:11","NivaM","8","listenblock","18","valence","2000","36841","25pct","3","P174_self_disclosure_neg2.wav"
"2022-01-07","03:06:11","NivaM","8","listenblock","19","valence","2000","38858","25pct","3","P174_self_disclosure_neg2.wav"
"2022-01-07","03:06:11","NivaM","8","listenblock","20","valence","2000","40875","25pct","3","P174_self_disclosure_neg2.wav"
"2022-01-07","03:06:11","NivaM","8","listenblock","21","valence","2000","42891","25pct","3","P174_self_disclosure_neg2.wav"
"2022-01-07","03:06:11","NivaM","8","listenblock","22","valence","2000","44908","25pct","3","P174_self_disclosure_neg2.wav"
"2022-01-07","03:06:11","NivaM","8","listenblock","23","valence","2000","46925","25pct","3","P174_self_disclosure_neg2.wav"
"2022-01-07","03:06:11","NivaM","8","listenblock","24","valence","2000","48942","25pct","3","P174_self_disclosure_neg2.wav"
"2022-01-07","03:06:11","NivaM","8","listenblock","25","valence","2000","50959","25pct","3","P174_self_disclosure_neg2.wav"
"2022-01-07","03:06:11","NivaM","8","listenblock","26","valence","2000","52975","25pct","3","P174_self_disclosure_neg2.wav"
"2022-01-07","03:06:11","NivaM","8","listenblock","27","valence","2000","54992","25pct","3","P174_self_disclosure_neg2.wav"
"2022-01-07","03:06:11","NivaM","8","listenblock","28","valence","2000","57009","25pct","3","P174_self_disclosure_neg2.wav"
"2022-01-07","03:06:11","NivaM","8","listenblock","29","valence","2000","59025","25pct","3","P174_self_disclosure_neg2.wav"
"2022-01-07","03:06:11","NivaM","8","listenblock","30","valence","2000","61042","25pct","3","P174_self_disclosure_neg2.wav"
"2022-01-07","03:06:11","NivaM","8","listenblock","31","valence","2000","63058","25pct","3","P174_self_disclosure_neg2.wav"
"2022-01-07","03:06:11","NivaM","8","listenblock","32","valence","2000","65075","25pct","3","P174_self_disclosure_neg2.wav"
"2022-01-07","03:06:11","NivaM","8","listenblock","33","valence","2000","67092","25pct","3","P174_self_disclosure_neg2.wav"
"2022-01-07","03:06:11","NivaM","8","listenblock","34","valence","2000","69108","25pct","3","P174_self_disclosure_neg2.wav"
"2022-01-07","03:06:11","NivaM","8","listenblock","35","valence","2000","71125","25pct","3","P174_self_disclosure_neg2.wav"
"2022-01-07","03:06:11","NivaM","8","listenblock","36","valence","2000","73142","25pct","3","P174_self_disclosure_neg2.wav"
"2022-01-07","03:06:11","NivaM","8","listenblock","37","valence","2000","75159","25pct","3","P174_self_disclosure_neg2.wav"
"2022-01-07","03:06:11","NivaM","8","listenblock","38","valence","2000","77175","25pct","3","P174_self_disclosure_neg2.wav"
"2022-01-07","03:06:11","NivaM","8","listenblock","39","valence","2000","79192","25pct","3","P174_self_disclosure_neg2.wav"
"2022-01-07","03:06:11","NivaM","8","listenblock","40","valence","2000","81209","25pct","3","P174_self_disclosure_neg2.wav"
"2022-01-07","03:06:11","NivaM","8","listenblock","41","valence","2000","83225","25pct","3","P174_self_disclosure_neg2.wav"
"2022-01-07","03:06:11","NivaM","8","listenblock","42","valence","2000","85242","25pct","3","P174_self_disclosure_neg2.wav"
"2022-01-07","03:06:11","NivaM","8","listenblock","43","valence","2000","87257","25pct","3","P174_self_disclosure_neg2.wav"
"2022-01-07","03:06:11","NivaM","8","listenblock","44","valence","2000","89274","25pct","3","P174_self_disclosure_neg2.wav"
"2022-01-07","03:06:11","NivaM","8","listenblock","45","valence","2000","91292","25pct","3","P174_self_disclosure_neg2.wav"
"2022-01-07","03:06:11","NivaM","8","listenblock","46","valence","2000","93309","25pct","3","P174_self_disclosure_neg2.wav"
"2022-01-07","03:06:11","NivaM","8","listenblock","47","valence","2000","95325","25pct","3","P174_self_disclosure_neg2.wav"
"2022-01-07","03:06:11","NivaM","8","listenblock","48","valence","1400","96741","26pct","3","P174_self_disclosure_neg2.wav"
"2022-01-07","03:06:11","NivaM","8","listenblock","49","valence","261","97025","27pct","3","P174_self_disclosure_neg2.wav"
"2022-01-07","03:06:11","NivaM","8","listenblock","50","valence","423","97464","26pct","3","P174_self_disclosure_neg2.wav"
"2022-01-07","03:06:11","NivaM","8","listenblock","51","valence","249","97736","25pct","3","P174_self_disclosure_neg2.wav"
"2022-01-07","03:06:11","NivaM","8","listenblock","52","valence","210","97963","24pct","3","P174_self_disclosure_neg2.wav"
"2022-01-07","03:06:11","NivaM","8","listenblock","53","valence","352","98338","23pct","3","P174_self_disclosure_neg2.wav"
"2022-01-07","03:06:11","NivaM","8","listenblock","54","valence","252","98613","22pct","3","P174_self_disclosure_neg2.wav"
"2022-01-07","03:06:11","NivaM","8","listenblock","55","valence","2000","100636","22pct","3","P174_self_disclosure_neg2.wav"
"2022-01-07","03:06:11","NivaM","8","listenblock","56","valence","1216","101868","21pct","3","P174_self_disclosure_neg2.wav"
"2022-01-07","03:06:11","NivaM","8","listenblock","57","valence","273","102164","20pct","3","P174_self_disclosure_neg2.wav"
"2022-01-07","03:06:11","NivaM","8","listenblock","58","valence","312","102491","19pct","3","P174_self_disclosure_neg2.wav"
"2022-01-07","03:06:11","NivaM","8","listenblock","59","valence","290","102804","18pct","3","P174_self_disclosure_neg2.wav"
"2022-01-07","03:06:11","NivaM","8","listenblock","60","valence","2000","104827","18pct","3","P174_self_disclosure_neg2.wav"
"2022-01-07","03:06:11","NivaM","8","listenblock","61","valence","2000","106844","18pct","3","P174_self_disclosure_neg2.wav"
"2022-01-07","03:06:11","NivaM","8","listenblock","62","valence","2000","108860","18pct","3","P174_self_disclosure_neg2.wav"
"2022-01-07","03:06:11","NivaM","8","listenblock","63","valence","2000","110876","18pct","3","P174_self_disclosure_neg2.wav"
"2022-01-07","03:06:11","NivaM","8","listenblock","64","valence","2000","112893","18pct","3","P174_self_disclosure_neg2.wav"
"2022-01-07","03:06:11","NivaM","8","listenblock","65","valence","2000","114910","18pct","3","P174_self_disclosure_neg2.wav"
"2022-01-07","03:06:11","NivaM","8","listenblock","66","valence","2000","116926","18pct","3","P174_self_disclosure_neg2.wav"
"2022-01-07","03:06:11","NivaM","8","listenblock","67","valence","2000","118943","18pct","3","P174_self_disclosure_neg2.wav"
"2022-01-07","03:06:11","NivaM","8","listenblock","68","valence","2000","120959","18pct","3","P174_self_disclosure_neg2.wav"
"2022-01-07","03:06:11","NivaM","8","listenblock","69","valence","2000","122976","18pct","3","P174_self_disclosure_neg2.wav"
"2022-01-07","03:06:11","NivaM","8","listenblock","70","valence","2000","124992","18pct","3","P174_self_disclosure_neg2.wav"
"2022-01-07","03:06:11","NivaM","8","listenblock","71","valence","2000","127009","18pct","3","P174_self_disclosure_neg2.wav"
"2022-01-07","03:06:11","NivaM","8","listenblock","72","valence","2000","129026","18pct","3","P174_self_disclosure_neg2.wav"
"2022-01-07","03:06:11","NivaM","8","listenblock","73","valence","2000","131042","18pct","3","P174_self_disclosure_neg2.wav"
"2022-01-07","03:06:11","NivaM","8","listenblock","74","valence","2000","133059","18pct","3","P174_self_disclosure_neg2.wav"
"2022-01-07","03:06:11","NivaM","8","listenblock","75","valence","2000","135076","18pct","3","P174_self_disclosure_neg2.wav"
"2022-01-07","03:06:11","NivaM","8","listenblock","76","valence","2000","137092","18pct","3","P174_self_disclosure_neg2.wav"
"2022-01-07","03:06:11","NivaM","8","listenblock","77","valence","2000","139108","18pct","3","P174_self_disclosure_neg2.wav"
"2022-01-07","03:06:11","NivaM","8","listenblock","78","valence","2000","141125","18pct","3","P174_self_disclosure_neg2.wav"
"2022-01-07","03:06:11","NivaM","8","listenblock","79","valence","2000","143142","18pct","3","P174_self_disclosure_neg2.wav"
"2022-01-07","03:06:11","NivaM","8","listenblock","80","valence","2000","145158","18pct","3","P174_self_disclosure_neg2.wav"
"2022-01-07","03:06:11","NivaM","8","listenblock","81","valence","2000","147175","18pct","3","P174_self_disclosure_neg2.wav"
"2022-01-07","03:06:11","NivaM","8","listenblock","82","valence","2000","149192","18pct","3","P174_self_disclosure_neg2.wav"
"2022-01-07","03:06:11","NivaM","8","listenblock","83","valence","2000","151208","18pct","3","P174_self_disclosure_neg2.wav"
"2022-01-07","03:06:11","NivaM","8","listenblock","84","valence","2000","153225","18pct","3","P174_self_disclosure_neg2.wav"
"2022-01-07","03:06:11","NivaM","8","listenblock","85","valence","2000","155242","18pct","3","P174_self_disclosure_neg2.wav"
"2022-01-07","03:06:11","NivaM","8","listenblock","86","valence","2000","157258","18pct","3","P174_self_disclosure_neg2.wav"
"2022-01-07","03:06:11","NivaM","8","listenblock","87","valence","2000","159274","18pct","3","P174_self_disclosure_neg2.wav"
"2022-01-07","03:06:11","NivaM","8","listenblock","88","valence","2000","161291","18pct","3","P174_self_disclosure_neg2.wav"
"2022-01-07","03:06:11","NivaM","8","listenblock","89","valence","2000","163307","18pct","3","P174_self_disclosure_neg2.wav"
"2022-01-07","03:06:11","NivaM","8","listenblock","90","valence","2000","165324","18pct","3","P174_self_disclosure_neg2.wav"
"2022-01-07","03:06:11","NivaM","8","listenblock","91","valence","2000","167341","18pct","3","P174_self_disclosure_neg2.wav"
"2022-01-07","03:06:11","NivaM","8","listenblock","92","valence","2000","169358","18pct","3","P174_self_disclosure_neg2.wav"
"2022-01-07","03:06:11","NivaM","8","listenblock","93","valence","1522","170896","19pct","3","P174_self_disclosure_neg2.wav"
"2022-01-07","03:06:11","NivaM","8","listenblock","94","valence","399","171318","20pct","3","P174_self_disclosure_neg2.wav"
"2022-01-07","03:06:11","NivaM","8","listenblock","95","valence","1141","172481","21pct","3","P174_self_disclosure_neg2.wav"
"2022-01-07","03:06:11","NivaM","8","listenblock","96","valence","603","173107","20pct","3","P174_self_disclosure_neg2.wav"
"2022-01-07","03:06:11","NivaM","8","listenblock","97","valence","336","173466","19pct","3","P174_self_disclosure_neg2.wav"
"2022-01-07","03:06:11","NivaM","8","listenblock","98","valence","2000","175498","19pct","3","P174_self_disclosure_neg2.wav"
"2022-01-07","03:06:11","NivaM","8","listenblock","99","valence","2000","177515","19pct","3","P174_self_disclosure_neg2.wav"
"2022-01-07","03:06:11","NivaM","8","listenblock","100","valence","2000","179532","19pct","3","P174_self_disclosure_neg2.wav"
"2022-01-07","03:06:11","NivaM","8","listenblock","101","valence","2000","181548","19pct","3","P174_self_disclosure_neg2.wav"
"2022-01-07","03:06:11","NivaM","10","listenblock","1","valence","2000","2132","25pct","5","P177_self_disclosure_pos1.wav"
"2022-01-07","03:06:11","NivaM","10","listenblock","2","valence","2000","4149","25pct","5","P177_self_disclosure_pos1.wav"
"2022-01-07","03:06:11","NivaM","10","listenblock","3","valence","2000","6165","25pct","5","P177_self_disclosure_pos1.wav"
"2022-01-07","03:06:11","NivaM","10","listenblock","4","valence","2000","8182","25pct","5","P177_self_disclosure_pos1.wav"
"2022-01-07","03:06:11","NivaM","10","listenblock","5","valence","2000","10199","25pct","5","P177_self_disclosure_pos1.wav"
"2022-01-07","03:06:11","NivaM","10","listenblock","6","valence","2000","12216","25pct","5","P177_self_disclosure_pos1.wav"
"2022-01-07","03:06:11","NivaM","10","listenblock","7","valence","2000","14232","25pct","5","P177_self_disclosure_pos1.wav"
"2022-01-07","03:06:11","NivaM","10","listenblock","8","valence","2000","16248","25pct","5","P177_self_disclosure_pos1.wav"
"2022-01-07","03:06:11","NivaM","10","listenblock","9","valence","2000","18264","25pct","5","P177_self_disclosure_pos1.wav"
"2022-01-07","03:06:11","NivaM","10","listenblock","10","valence","86","18366","26pct","5","P177_self_disclosure_pos1.wav"
"2022-01-07","03:06:11","NivaM","10","listenblock","11","valence","241","18621","27pct","5","P177_self_disclosure_pos1.wav"
"2022-01-07","03:06:11","NivaM","10","listenblock","12","valence","575","19214","28pct","5","P177_self_disclosure_pos1.wav"
"2022-01-07","03:06:11","NivaM","10","listenblock","13","valence","234","19471","29pct","5","P177_self_disclosure_pos1.wav"
"2022-01-07","03:06:11","NivaM","10","listenblock","14","valence","388","19874","30pct","5","P177_self_disclosure_pos1.wav"
"2022-01-07","03:06:11","NivaM","10","listenblock","15","valence","2000","21898","30pct","5","P177_self_disclosure_pos1.wav"
"2022-01-07","03:06:11","NivaM","10","listenblock","16","valence","2000","23914","30pct","5","P177_self_disclosure_pos1.wav"
"2022-01-07","03:06:11","NivaM","10","listenblock","17","valence","2000","25930","30pct","5","P177_self_disclosure_pos1.wav"
"2022-01-07","03:06:11","NivaM","10","listenblock","18","valence","2000","27947","30pct","5","P177_self_disclosure_pos1.wav"
"2022-01-07","03:06:11","NivaM","10","listenblock","19","valence","2000","29964","30pct","5","P177_self_disclosure_pos1.wav"
"2022-01-07","03:06:11","NivaM","10","listenblock","20","valence","2000","31980","30pct","5","P177_self_disclosure_pos1.wav"
"2022-01-07","03:06:11","NivaM","10","listenblock","21","valence","2000","33997","30pct","5","P177_self_disclosure_pos1.wav"
"2022-01-07","03:06:11","NivaM","10","listenblock","22","valence","2000","36013","30pct","5","P177_self_disclosure_pos1.wav"
"2022-01-07","03:06:11","NivaM","10","listenblock","23","valence","2000","38030","30pct","5","P177_self_disclosure_pos1.wav"
"2022-01-07","03:06:11","NivaM","10","listenblock","24","valence","2000","40047","30pct","5","P177_self_disclosure_pos1.wav"
"2022-01-07","03:06:11","NivaM","10","listenblock","25","valence","2000","42063","30pct","5","P177_self_disclosure_pos1.wav"
"2022-01-07","03:06:11","NivaM","10","listenblock","26","valence","2000","44080","30pct","5","P177_self_disclosure_pos1.wav"
"2022-01-07","03:06:11","NivaM","10","listenblock","27","valence","138","44234","29pct","5","P177_self_disclosure_pos1.wav"
"2022-01-07","03:06:11","NivaM","10","listenblock","28","valence","399","44645","28pct","5","P177_self_disclosure_pos1.wav"
"2022-01-07","03:06:11","NivaM","10","listenblock","29","valence","462","45130","27pct","5","P177_self_disclosure_pos1.wav"
"2022-01-07","03:06:11","NivaM","10","listenblock","30","valence","190","45347","26pct","5","P177_self_disclosure_pos1.wav"
"2022-01-07","03:06:11","NivaM","10","listenblock","31","valence","190","45563","25pct","5","P177_self_disclosure_pos1.wav"
"2022-01-07","03:06:11","NivaM","10","listenblock","32","valence","163","45754","24pct","5","P177_self_disclosure_pos1.wav"
"2022-01-07","03:06:11","NivaM","10","listenblock","33","valence","192","45966","23pct","5","P177_self_disclosure_pos1.wav"
"2022-01-07","03:06:11","NivaM","10","listenblock","34","valence","447","46438","22pct","5","P177_self_disclosure_pos1.wav"
"2022-01-07","03:06:11","NivaM","10","listenblock","35","valence","181","46642","21pct","5","P177_self_disclosure_pos1.wav"
"2022-01-07","03:06:11","NivaM","10","listenblock","36","valence","194","46855","20pct","5","P177_self_disclosure_pos1.wav"
"2022-01-07","03:06:11","NivaM","10","listenblock","37","valence","213","47091","19pct","5","P177_self_disclosure_pos1.wav"
"2022-01-07","03:06:11","NivaM","10","listenblock","38","valence","2000","49111","19pct","5","P177_self_disclosure_pos1.wav"
"2022-01-07","03:06:11","NivaM","10","listenblock","39","valence","2000","51128","19pct","5","P177_self_disclosure_pos1.wav"
"2022-01-07","03:06:11","NivaM","10","listenblock","40","valence","2000","53144","19pct","5","P177_self_disclosure_pos1.wav"
"2022-01-07","03:06:11","NivaM","10","listenblock","41","valence","2000","55161","19pct","5","P177_self_disclosure_pos1.wav"
"2022-01-07","03:06:11","NivaM","10","listenblock","42","valence","2000","57177","19pct","5","P177_self_disclosure_pos1.wav"
"2022-01-07","03:06:11","NivaM","10","listenblock","43","valence","2000","59193","19pct","5","P177_self_disclosure_pos1.wav"
"2022-01-07","03:06:11","NivaM","10","listenblock","44","valence","2000","61210","19pct","5","P177_self_disclosure_pos1.wav"
"2022-01-07","03:06:11","NivaM","10","listenblock","45","valence","2000","63227","19pct","5","P177_self_disclosure_pos1.wav"
"2022-01-07","03:06:11","NivaM","10","listenblock","46","valence","2000","65243","19pct","5","P177_self_disclosure_pos1.wav"
"2022-01-07","03:06:11","NivaM","10","listenblock","47","valence","2000","67260","19pct","5","P177_self_disclosure_pos1.wav"
"2022-01-07","03:06:11","NivaM","10","listenblock","48","valence","2000","69277","19pct","5","P177_self_disclosure_pos1.wav"
"2022-01-07","03:06:11","NivaM","10","listenblock","49","valence","203","69495","20pct","5","P177_self_disclosure_pos1.wav"
"2022-01-07","03:06:11","NivaM","10","listenblock","50","valence","301","69818","21pct","5","P177_self_disclosure_pos1.wav"
"2022-01-07","03:06:11","NivaM","10","listenblock","51","valence","273","70113","22pct","5","P177_self_disclosure_pos1.wav"
"2022-01-07","03:06:11","NivaM","10","listenblock","52","valence","491","70615","21pct","5","P177_self_disclosure_pos1.wav"
"2022-01-07","03:06:11","NivaM","10","listenblock","53","valence","237","70873","20pct","5","P177_self_disclosure_pos1.wav"
"2022-01-07","03:06:11","NivaM","10","listenblock","54","valence","186","71073","19pct","5","P177_self_disclosure_pos1.wav"
"2022-01-07","03:06:11","NivaM","10","listenblock","55","valence","188","71276","18pct","5","P177_self_disclosure_pos1.wav"
"2022-01-07","03:06:11","NivaM","10","listenblock","56","valence","238","71525","17pct","5","P177_self_disclosure_pos1.wav"
"2022-01-07","03:06:11","NivaM","10","listenblock","57","valence","2000","73538","17pct","5","P177_self_disclosure_pos1.wav"
"2022-01-07","03:06:11","NivaM","10","listenblock","58","valence","2000","75555","17pct","5","P177_self_disclosure_pos1.wav"
"2022-01-07","03:06:11","NivaM","10","listenblock","59","valence","2000","77571","17pct","5","P177_self_disclosure_pos1.wav"
"2022-01-07","03:06:11","NivaM","10","listenblock","60","valence","2000","79588","17pct","5","P177_self_disclosure_pos1.wav"
"2022-01-07","03:06:11","NivaM","10","listenblock","61","valence","2000","81604","17pct","5","P177_self_disclosure_pos1.wav"
"2022-01-07","03:06:11","NivaM","10","listenblock","62","valence","2000","83621","17pct","5","P177_self_disclosure_pos1.wav"
"2022-01-07","03:06:11","NivaM","10","listenblock","63","valence","2000","85637","17pct","5","P177_self_disclosure_pos1.wav"
"2022-01-07","03:06:11","NivaM","10","listenblock","64","valence","2000","87654","17pct","5","P177_self_disclosure_pos1.wav"
"2022-01-07","03:06:11","NivaM","10","listenblock","65","valence","2000","89671","17pct","5","P177_self_disclosure_pos1.wav"
"2022-01-07","03:06:11","NivaM","10","listenblock","66","valence","2000","91687","17pct","5","P177_self_disclosure_pos1.wav"
"2022-01-07","03:06:11","NivaM","10","listenblock","67","valence","2000","93704","17pct","5","P177_self_disclosure_pos1.wav"
"2022-01-07","03:06:11","NivaM","10","listenblock","68","valence","2000","95721","17pct","5","P177_self_disclosure_pos1.wav"
"2022-01-07","03:06:11","NivaM","10","listenblock","69","valence","2000","97737","17pct","5","P177_self_disclosure_pos1.wav"
"2022-01-07","03:06:11","NivaM","10","listenblock","70","valence","2000","99753","17pct","5","P177_self_disclosure_pos1.wav"
"2022-01-07","03:06:11","NivaM","10","listenblock","71","valence","2000","101770","17pct","5","P177_self_disclosure_pos1.wav"
"2022-01-07","03:06:11","NivaM","10","listenblock","72","valence","2000","103787","17pct","5","P177_self_disclosure_pos1.wav"
"2022-01-07","03:06:11","NivaM","10","listenblock","73","valence","2000","105803","17pct","5","P177_self_disclosure_pos1.wav"
"2022-01-07","03:06:11","NivaM","10","listenblock","74","valence","2000","107820","17pct","5","P177_self_disclosure_pos1.wav"
"2022-01-07","03:06:11","NivaM","10","listenblock","75","valence","2000","109836","17pct","5","P177_self_disclosure_pos1.wav"
"2022-01-07","03:06:11","NivaM","10","listenblock","76","valence","2000","111853","17pct","5","P177_self_disclosure_pos1.wav"
"2022-01-07","03:06:11","NivaM","10","listenblock","77","valence","2000","113870","17pct","5","P177_self_disclosure_pos1.wav"
"2022-01-07","03:06:11","NivaM","10","listenblock","78","valence","1050","114935","18pct","5","P177_self_disclosure_pos1.wav"
"2022-01-07","03:06:11","NivaM","10","listenblock","79","valence","244","115202","19pct","5","P177_self_disclosure_pos1.wav"
"2022-01-07","03:06:11","NivaM","10","listenblock","80","valence","280","115505","20pct","5","P177_self_disclosure_pos1.wav"
"2022-01-07","03:06:11","NivaM","10","listenblock","81","valence","254","115784","21pct","5","P177_self_disclosure_pos1.wav"
"2022-01-07","03:06:11","NivaM","10","listenblock","82","valence","1595","117391","22pct","5","P177_self_disclosure_pos1.wav"
"2022-01-07","03:06:11","NivaM","10","listenblock","83","valence","2000","119414","22pct","5","P177_self_disclosure_pos1.wav"
"2022-01-07","03:06:11","NivaM","10","listenblock","84","valence","2000","121431","22pct","5","P177_self_disclosure_pos1.wav"
"2022-01-07","03:06:11","NivaM","10","listenblock","85","valence","2000","123448","22pct","5","P177_self_disclosure_pos1.wav"
"2022-01-07","03:06:11","NivaM","10","listenblock","86","valence","2000","125464","22pct","5","P177_self_disclosure_pos1.wav"
"2022-01-07","03:06:11","NivaM","10","listenblock","87","valence","2000","127481","22pct","5","P177_self_disclosure_pos1.wav"
"2022-01-07","03:06:11","NivaM","10","listenblock","88","valence","2000","129498","22pct","5","P177_self_disclosure_pos1.wav"
"2022-01-07","03:06:11","NivaM","10","listenblock","89","valence","2000","131514","22pct","5","P177_self_disclosure_pos1.wav"
"2022-01-07","03:06:11","NivaM","10","listenblock","90","valence","2000","133531","22pct","5","P177_self_disclosure_pos1.wav"
"2022-01-07","03:06:11","NivaM","10","listenblock","91","valence","2000","135547","22pct","5","P177_self_disclosure_pos1.wav"
"2022-01-07","03:06:11","NivaM","10","listenblock","92","valence","2000","137564","22pct","5","P177_self_disclosure_pos1.wav"
"2022-01-07","03:06:11","NivaM","10","listenblock","93","valence","2000","139581","22pct","5","P177_self_disclosure_pos1.wav"
"2022-01-07","03:06:11","NivaM","10","listenblock","94","valence","2000","141598","22pct","5","P177_self_disclosure_pos1.wav"
"2022-01-07","03:06:11","NivaM","10","listenblock","95","valence","2000","143614","22pct","5","P177_self_disclosure_pos1.wav"
"2022-01-07","03:06:11","NivaM","10","listenblock","96","valence","2000","145631","22pct","5","P177_self_disclosure_pos1.wav"
"2022-01-07","03:06:11","NivaM","10","listenblock","97","valence","2000","147648","22pct","5","P177_self_disclosure_pos1.wav"
"2022-01-07","03:06:11","NivaM","10","listenblock","98","valence","2000","149664","22pct","5","P177_self_disclosure_pos1.wav"
"2022-01-07","03:06:11","NivaM","10","listenblock","99","valence","2000","151681","22pct","5","P177_self_disclosure_pos1.wav"
"2022-01-07","03:06:11","NivaM","10","listenblock","100","valence","2000","153698","22pct","5","P177_self_disclosure_pos1.wav"
"2022-01-07","03:06:11","NivaM","10","listenblock","101","valence","2000","155714","22pct","5","P177_self_disclosure_pos1.wav"
"2022-01-07","03:06:11","NivaM","10","listenblock","102","valence","2000","157731","22pct","5","P177_self_disclosure_pos1.wav"
"2022-01-07","03:06:11","NivaM","10","listenblock","103","valence","2000","159748","22pct","5","P177_self_disclosure_pos1.wav"
"2022-01-07","03:06:11","NivaM","10","listenblock","104","valence","2000","161765","22pct","5","P177_self_disclosure_pos1.wav"
"2022-01-07","03:06:11","NivaM","10","listenblock","105","valence","666","162446","23pct","5","P177_self_disclosure_pos1.wav"
"2022-01-07","03:06:11","NivaM","10","listenblock","106","valence","123","162591","24pct","5","P177_self_disclosure_pos1.wav"
"2022-01-07","03:06:11","NivaM","10","listenblock","107","valence","271","162873","25pct","5","P177_self_disclosure_pos1.wav"
"2022-01-07","03:06:11","NivaM","10","listenblock","108","valence","2000","164886","25pct","5","P177_self_disclosure_pos1.wav"
"2022-01-07","03:06:11","NivaM","10","listenblock","109","valence","2000","166903","25pct","5","P177_self_disclosure_pos1.wav"
"2022-01-07","03:06:11","NivaM","10","listenblock","110","valence","2000","168920","25pct","5","P177_self_disclosure_pos1.wav"
"2022-01-07","03:06:11","NivaM","10","listenblock","111","valence","2000","170937","25pct","5","P177_self_disclosure_pos1.wav"
"2022-01-07","03:06:11","NivaM","10","listenblock","112","valence","2000","172953","25pct","5","P177_self_disclosure_pos1.wav"
"2022-01-07","03:06:11","NivaM","10","listenblock","113","valence","2000","174969","25pct","5","P177_self_disclosure_pos1.wav"
"2022-01-07","03:06:11","NivaM","10","listenblock","114","valence","2000","176986","25pct","5","P177_self_disclosure_pos1.wav"
"2022-01-07","03:06:11","NivaM","10","listenblock","115","valence","2000","179002","25pct","5","P177_self_disclosure_pos1.wav"
"2022-01-07","03:06:11","NivaM","10","listenblock","116","valence","2000","181019","25pct","5","P177_self_disclosure_pos1.wav"
"2022-01-10","10:57:17","Yuritza","2","listenblock","1","valence","2000","2694","25pct","4","P176_self_disclosure_pos2.wav"
"2022-01-10","10:57:17","Yuritza","2","listenblock","2","valence","2000","4712","25pct","4","P176_self_disclosure_pos2.wav"
"2022-01-10","10:57:17","Yuritza","2","listenblock","3","valence","2000","6730","25pct","4","P176_self_disclosure_pos2.wav"
"2022-01-10","10:57:17","Yuritza","2","listenblock","4","valence","2000","8748","25pct","4","P176_self_disclosure_pos2.wav"
"2022-01-10","10:57:17","Yuritza","2","listenblock","5","valence","2000","10766","25pct","4","P176_self_disclosure_pos2.wav"
"2022-01-10","10:57:17","Yuritza","2","listenblock","6","valence","2000","12784","25pct","4","P176_self_disclosure_pos2.wav"
"2022-01-10","10:57:17","Yuritza","2","listenblock","7","valence","2000","14803","25pct","4","P176_self_disclosure_pos2.wav"
"2022-01-10","10:57:17","Yuritza","2","listenblock","8","valence","930","15751","26pct","4","P176_self_disclosure_pos2.wav"
"2022-01-10","10:57:17","Yuritza","2","listenblock","9","valence","1489","17260","27pct","4","P176_self_disclosure_pos2.wav"
"2022-01-10","10:57:17","Yuritza","2","listenblock","10","valence","2000","19273","27pct","4","P176_self_disclosure_pos2.wav"
"2022-01-10","10:57:17","Yuritza","2","listenblock","11","valence","2000","21290","27pct","4","P176_self_disclosure_pos2.wav"
"2022-01-10","10:57:17","Yuritza","2","listenblock","12","valence","222","21530","28pct","4","P176_self_disclosure_pos2.wav"
"2022-01-10","10:57:17","Yuritza","2","listenblock","13","valence","888","22430","29pct","4","P176_self_disclosure_pos2.wav"
"2022-01-10","10:57:17","Yuritza","2","listenblock","14","valence","378","22820","30pct","4","P176_self_disclosure_pos2.wav"
"2022-01-10","10:57:17","Yuritza","2","listenblock","15","valence","1138","23980","31pct","4","P176_self_disclosure_pos2.wav"
"2022-01-10","10:57:17","Yuritza","2","listenblock","16","valence","2000","25994","31pct","4","P176_self_disclosure_pos2.wav"
"2022-01-10","10:57:17","Yuritza","2","listenblock","17","valence","2000","28010","31pct","4","P176_self_disclosure_pos2.wav"
"2022-01-10","10:57:17","Yuritza","2","listenblock","18","valence","2000","30028","31pct","4","P176_self_disclosure_pos2.wav"
"2022-01-10","10:57:17","Yuritza","2","listenblock","19","valence","2000","32046","31pct","4","P176_self_disclosure_pos2.wav"
"2022-01-10","10:57:17","Yuritza","2","listenblock","20","valence","2000","34065","31pct","4","P176_self_disclosure_pos2.wav"
"2022-01-10","10:57:17","Yuritza","2","listenblock","21","valence","2000","36083","31pct","4","P176_self_disclosure_pos2.wav"
"2022-01-10","10:57:17","Yuritza","2","listenblock","22","valence","200","36300","32pct","4","P176_self_disclosure_pos2.wav"
"2022-01-10","10:57:17","Yuritza","2","listenblock","23","valence","333","36651","33pct","4","P176_self_disclosure_pos2.wav"
"2022-01-10","10:57:17","Yuritza","2","listenblock","24","valence","592","37260","34pct","4","P176_self_disclosure_pos2.wav"
"2022-01-10","10:57:17","Yuritza","2","listenblock","25","valence","2000","39286","34pct","4","P176_self_disclosure_pos2.wav"
"2022-01-10","10:57:17","Yuritza","2","listenblock","26","valence","2000","41303","34pct","4","P176_self_disclosure_pos2.wav"
"2022-01-10","10:57:17","Yuritza","2","listenblock","27","valence","2000","43322","34pct","4","P176_self_disclosure_pos2.wav"
"2022-01-10","10:57:17","Yuritza","2","listenblock","28","valence","2000","45340","34pct","4","P176_self_disclosure_pos2.wav"
"2022-01-10","10:57:17","Yuritza","2","listenblock","29","valence","2000","47358","34pct","4","P176_self_disclosure_pos2.wav"
"2022-01-10","10:57:17","Yuritza","2","listenblock","30","valence","2000","49376","34pct","4","P176_self_disclosure_pos2.wav"
"2022-01-10","10:57:17","Yuritza","2","listenblock","31","valence","2000","51394","34pct","4","P176_self_disclosure_pos2.wav"
"2022-01-10","10:57:17","Yuritza","2","listenblock","32","valence","2000","53412","34pct","4","P176_self_disclosure_pos2.wav"
"2022-01-10","10:57:17","Yuritza","2","listenblock","33","valence","2000","55430","34pct","4","P176_self_disclosure_pos2.wav"
"2022-01-10","10:57:17","Yuritza","2","listenblock","34","valence","2000","57448","34pct","4","P176_self_disclosure_pos2.wav"
"2022-01-10","10:57:17","Yuritza","2","listenblock","35","valence","2000","59466","34pct","4","P176_self_disclosure_pos2.wav"
"2022-01-10","10:57:17","Yuritza","2","listenblock","36","valence","2000","61484","34pct","4","P176_self_disclosure_pos2.wav"
"2022-01-10","10:57:17","Yuritza","2","listenblock","37","valence","2000","63502","34pct","4","P176_self_disclosure_pos2.wav"
"2022-01-10","10:57:17","Yuritza","2","listenblock","38","valence","2000","65521","34pct","4","P176_self_disclosure_pos2.wav"
"2022-01-10","10:57:17","Yuritza","2","listenblock","39","valence","2000","67539","34pct","4","P176_self_disclosure_pos2.wav"
"2022-01-10","10:57:17","Yuritza","2","listenblock","40","valence","2000","69556","34pct","4","P176_self_disclosure_pos2.wav"
"2022-01-10","10:57:17","Yuritza","2","listenblock","41","valence","2000","71575","34pct","4","P176_self_disclosure_pos2.wav"
"2022-01-10","10:57:17","Yuritza","2","listenblock","42","valence","2000","73593","34pct","4","P176_self_disclosure_pos2.wav"
"2022-01-10","10:57:17","Yuritza","2","listenblock","43","valence","1503","75113","35pct","4","P176_self_disclosure_pos2.wav"
"2022-01-10","10:57:17","Yuritza","2","listenblock","44","valence","205","75334","36pct","4","P176_self_disclosure_pos2.wav"
"2022-01-10","10:57:17","Yuritza","2","listenblock","45","valence","528","75873","37pct","4","P176_self_disclosure_pos2.wav"
"2022-01-10","10:57:17","Yuritza","2","listenblock","46","valence","177","76074","38pct","4","P176_self_disclosure_pos2.wav"
"2022-01-10","10:57:17","Yuritza","2","listenblock","47","valence","127","76223","39pct","4","P176_self_disclosure_pos2.wav"
"2022-01-10","10:57:17","Yuritza","2","listenblock","48","valence","667","76914","40pct","4","P176_self_disclosure_pos2.wav"
"2022-01-10","10:57:17","Yuritza","2","listenblock","49","valence","793","77724","41pct","4","P176_self_disclosure_pos2.wav"
"2022-01-10","10:57:17","Yuritza","2","listenblock","50","valence","2000","79747","41pct","4","P176_self_disclosure_pos2.wav"
"2022-01-10","10:57:17","Yuritza","2","listenblock","51","valence","2000","81764","41pct","4","P176_self_disclosure_pos2.wav"
"2022-01-10","10:57:17","Yuritza","2","listenblock","52","valence","2000","83783","41pct","4","P176_self_disclosure_pos2.wav"
"2022-01-10","10:57:17","Yuritza","2","listenblock","53","valence","2000","85801","41pct","4","P176_self_disclosure_pos2.wav"
"2022-01-10","10:57:17","Yuritza","2","listenblock","54","valence","2000","87819","41pct","4","P176_self_disclosure_pos2.wav"
"2022-01-10","10:57:17","Yuritza","2","listenblock","55","valence","2000","89837","41pct","4","P176_self_disclosure_pos2.wav"
"2022-01-10","10:57:17","Yuritza","2","listenblock","56","valence","1568","91424","42pct","4","P176_self_disclosure_pos2.wav"
"2022-01-10","10:57:17","Yuritza","2","listenblock","57","valence","2000","93440","42pct","4","P176_self_disclosure_pos2.wav"
"2022-01-10","10:57:17","Yuritza","2","listenblock","58","valence","2000","95458","42pct","4","P176_self_disclosure_pos2.wav"
"2022-01-10","10:57:17","Yuritza","2","listenblock","59","valence","2000","97476","42pct","4","P176_self_disclosure_pos2.wav"
"2022-01-10","10:57:17","Yuritza","2","listenblock","60","valence","590","98084","43pct","4","P176_self_disclosure_pos2.wav"
"2022-01-10","10:57:17","Yuritza","2","listenblock","61","valence","193","98305","44pct","4","P176_self_disclosure_pos2.wav"
"2022-01-10","10:57:17","Yuritza","2","listenblock","62","valence","457","98784","45pct","4","P176_self_disclosure_pos2.wav"
"2022-01-10","10:57:17","Yuritza","2","listenblock","63","valence","2000","100795","45pct","4","P176_self_disclosure_pos2.wav"
"2022-01-10","10:57:17","Yuritza","2","listenblock","64","valence","2000","102813","45pct","4","P176_self_disclosure_pos2.wav"
"2022-01-10","10:57:17","Yuritza","2","listenblock","65","valence","2000","104830","45pct","4","P176_self_disclosure_pos2.wav"
"2022-01-10","10:57:17","Yuritza","2","listenblock","66","valence","2000","106849","45pct","4","P176_self_disclosure_pos2.wav"
"2022-01-10","10:57:17","Yuritza","2","listenblock","67","valence","2000","108866","45pct","4","P176_self_disclosure_pos2.wav"
"2022-01-10","10:57:17","Yuritza","2","listenblock","68","valence","2000","110885","45pct","4","P176_self_disclosure_pos2.wav"
"2022-01-10","10:57:17","Yuritza","2","listenblock","69","valence","2000","112902","45pct","4","P176_self_disclosure_pos2.wav"
"2022-01-10","10:57:17","Yuritza","2","listenblock","70","valence","2000","114921","45pct","4","P176_self_disclosure_pos2.wav"
"2022-01-10","10:57:17","Yuritza","2","listenblock","71","valence","2000","116939","45pct","4","P176_self_disclosure_pos2.wav"
"2022-01-10","10:57:17","Yuritza","2","listenblock","72","valence","2000","118957","45pct","4","P176_self_disclosure_pos2.wav"
"2022-01-10","10:57:17","Yuritza","2","listenblock","73","valence","2000","120975","45pct","4","P176_self_disclosure_pos2.wav"
"2022-01-10","10:57:17","Yuritza","2","listenblock","74","valence","2000","122993","45pct","4","P176_self_disclosure_pos2.wav"
"2022-01-10","10:57:17","Yuritza","2","listenblock","75","valence","2000","125011","45pct","4","P176_self_disclosure_pos2.wav"
"2022-01-10","10:57:17","Yuritza","2","listenblock","76","valence","316","125345","46pct","4","P176_self_disclosure_pos2.wav"
"2022-01-10","10:57:17","Yuritza","2","listenblock","77","valence","372","125735","47pct","4","P176_self_disclosure_pos2.wav"
"2022-01-10","10:57:17","Yuritza","2","listenblock","78","valence","2000","127747","47pct","4","P176_self_disclosure_pos2.wav"
"2022-01-10","10:57:17","Yuritza","2","listenblock","79","valence","2000","129764","47pct","4","P176_self_disclosure_pos2.wav"
"2022-01-10","10:57:17","Yuritza","2","listenblock","80","valence","2000","131783","47pct","4","P176_self_disclosure_pos2.wav"
"2022-01-10","10:57:17","Yuritza","2","listenblock","81","valence","2000","133801","47pct","4","P176_self_disclosure_pos2.wav"
"2022-01-10","10:57:17","Yuritza","2","listenblock","82","valence","2000","135819","47pct","4","P176_self_disclosure_pos2.wav"
"2022-01-10","10:57:17","Yuritza","2","listenblock","83","valence","2000","137837","47pct","4","P176_self_disclosure_pos2.wav"
"2022-01-10","10:57:17","Yuritza","2","listenblock","84","valence","2000","139855","47pct","4","P176_self_disclosure_pos2.wav"
"2022-01-10","10:57:17","Yuritza","2","listenblock","85","valence","2000","141873","47pct","4","P176_self_disclosure_pos2.wav"
"2022-01-10","10:57:17","Yuritza","2","listenblock","86","valence","2000","143891","47pct","4","P176_self_disclosure_pos2.wav"
"2022-01-10","10:57:17","Yuritza","2","listenblock","87","valence","2000","145909","47pct","4","P176_self_disclosure_pos2.wav"
"2022-01-10","10:57:17","Yuritza","2","listenblock","88","valence","2000","147927","47pct","4","P176_self_disclosure_pos2.wav"
"2022-01-10","10:57:17","Yuritza","2","listenblock","89","valence","2000","149945","47pct","4","P176_self_disclosure_pos2.wav"
"2022-01-10","10:57:17","Yuritza","2","listenblock","90","valence","2000","151963","47pct","4","P176_self_disclosure_pos2.wav"
"2022-01-10","10:57:17","Yuritza","2","listenblock","91","valence","2000","153981","47pct","4","P176_self_disclosure_pos2.wav"
"2022-01-10","10:57:17","Yuritza","2","listenblock","92","valence","2000","155999","47pct","4","P176_self_disclosure_pos2.wav"
"2022-01-10","10:57:17","Yuritza","2","listenblock","93","valence","2000","158017","47pct","4","P176_self_disclosure_pos2.wav"
"2022-01-10","10:57:17","Yuritza","2","listenblock","94","valence","2000","160035","47pct","4","P176_self_disclosure_pos2.wav"
"2022-01-10","10:57:17","Yuritza","2","listenblock","95","valence","2000","162053","47pct","4","P176_self_disclosure_pos2.wav"
"2022-01-10","10:57:17","Yuritza","2","listenblock","96","valence","2000","164071","47pct","4","P176_self_disclosure_pos2.wav"
"2022-01-10","10:57:17","Yuritza","2","listenblock","97","valence","2000","166089","47pct","4","P176_self_disclosure_pos2.wav"
"2022-01-10","10:57:17","Yuritza","2","listenblock","98","valence","2000","168107","47pct","4","P176_self_disclosure_pos2.wav"
"2022-01-10","10:57:17","Yuritza","2","listenblock","99","valence","2000","170125","47pct","4","P176_self_disclosure_pos2.wav"
"2022-01-10","10:57:17","Yuritza","2","listenblock","100","valence","2000","172144","47pct","4","P176_self_disclosure_pos2.wav"
"2022-01-10","10:57:17","Yuritza","2","listenblock","101","valence","2000","174161","47pct","4","P176_self_disclosure_pos2.wav"
"2022-01-10","10:57:17","Yuritza","2","listenblock","102","valence","2000","176179","47pct","4","P176_self_disclosure_pos2.wav"
"2022-01-10","10:57:17","Yuritza","2","listenblock","103","valence","2000","178197","47pct","4","P176_self_disclosure_pos2.wav"
"2022-01-10","10:57:17","Yuritza","2","listenblock","104","valence","2000","180216","47pct","4","P176_self_disclosure_pos2.wav"
"2022-01-10","10:57:17","Yuritza","4","listenblock","1","valence","2000","2364","25pct","5","P177_self_disclosure_pos1.wav"
"2022-01-10","10:57:17","Yuritza","4","listenblock","2","valence","2000","4382","25pct","5","P177_self_disclosure_pos1.wav"
"2022-01-10","10:57:17","Yuritza","4","listenblock","3","valence","2000","6400","25pct","5","P177_self_disclosure_pos1.wav"
"2022-01-10","10:57:17","Yuritza","4","listenblock","4","valence","2000","8418","25pct","5","P177_self_disclosure_pos1.wav"
"2022-01-10","10:57:17","Yuritza","4","listenblock","5","valence","2000","10436","25pct","5","P177_self_disclosure_pos1.wav"
"2022-01-10","10:57:17","Yuritza","4","listenblock","6","valence","2000","12454","25pct","5","P177_self_disclosure_pos1.wav"
"2022-01-10","10:57:17","Yuritza","4","listenblock","7","valence","837","13309","24pct","5","P177_self_disclosure_pos1.wav"
"2022-01-10","10:57:17","Yuritza","4","listenblock","8","valence","2000","15323","24pct","5","P177_self_disclosure_pos1.wav"
"2022-01-10","10:57:17","Yuritza","4","listenblock","9","valence","279","15620","25pct","5","P177_self_disclosure_pos1.wav"
"2022-01-10","10:57:17","Yuritza","4","listenblock","10","valence","299","15940","26pct","5","P177_self_disclosure_pos1.wav"
"2022-01-10","10:57:17","Yuritza","4","listenblock","11","valence","952","16910","27pct","5","P177_self_disclosure_pos1.wav"
"2022-01-10","10:57:17","Yuritza","4","listenblock","12","valence","2000","18926","27pct","5","P177_self_disclosure_pos1.wav"
"2022-01-10","10:57:17","Yuritza","4","listenblock","13","valence","807","19750","28pct","5","P177_self_disclosure_pos1.wav"
"2022-01-10","10:57:17","Yuritza","4","listenblock","14","valence","2000","21761","28pct","5","P177_self_disclosure_pos1.wav"
"2022-01-10","10:57:17","Yuritza","4","listenblock","15","valence","2000","23779","28pct","5","P177_self_disclosure_pos1.wav"
"2022-01-10","10:57:17","Yuritza","4","listenblock","16","valence","2000","25797","28pct","5","P177_self_disclosure_pos1.wav"
"2022-01-10","10:57:17","Yuritza","4","listenblock","17","valence","2000","27815","28pct","5","P177_self_disclosure_pos1.wav"
"2022-01-10","10:57:17","Yuritza","4","listenblock","18","valence","2000","29833","28pct","5","P177_self_disclosure_pos1.wav"
"2022-01-10","10:57:17","Yuritza","4","listenblock","19","valence","2000","31851","28pct","5","P177_self_disclosure_pos1.wav"
"2022-01-10","10:57:17","Yuritza","4","listenblock","20","valence","2000","33869","28pct","5","P177_self_disclosure_pos1.wav"
"2022-01-10","10:57:17","Yuritza","4","listenblock","21","valence","2000","35887","28pct","5","P177_self_disclosure_pos1.wav"
"2022-01-10","10:57:17","Yuritza","4","listenblock","22","valence","1725","37630","27pct","5","P177_self_disclosure_pos1.wav"
"2022-01-10","10:57:17","Yuritza","4","listenblock","23","valence","1424","39080","28pct","5","P177_self_disclosure_pos1.wav"
"2022-01-10","10:57:17","Yuritza","4","listenblock","24","valence","291","39381","29pct","5","P177_self_disclosure_pos1.wav"
"2022-01-10","10:57:17","Yuritza","4","listenblock","25","valence","2000","41407","29pct","5","P177_self_disclosure_pos1.wav"
"2022-01-10","10:57:17","Yuritza","4","listenblock","26","valence","2000","43425","29pct","5","P177_self_disclosure_pos1.wav"
"2022-01-10","10:57:17","Yuritza","4","listenblock","27","valence","2000","45443","29pct","5","P177_self_disclosure_pos1.wav"
"2022-01-10","10:57:17","Yuritza","4","listenblock","28","valence","2000","47462","29pct","5","P177_self_disclosure_pos1.wav"
"2022-01-10","10:57:17","Yuritza","4","listenblock","29","valence","2000","49480","29pct","5","P177_self_disclosure_pos1.wav"
"2022-01-10","10:57:17","Yuritza","4","listenblock","30","valence","2000","51498","29pct","5","P177_self_disclosure_pos1.wav"
"2022-01-10","10:57:17","Yuritza","4","listenblock","31","valence","2000","53516","29pct","5","P177_self_disclosure_pos1.wav"
"2022-01-10","10:57:17","Yuritza","4","listenblock","32","valence","1737","55271","30pct","5","P177_self_disclosure_pos1.wav"
"2022-01-10","10:57:17","Yuritza","4","listenblock","33","valence","2000","57286","30pct","5","P177_self_disclosure_pos1.wav"
"2022-01-10","10:57:17","Yuritza","4","listenblock","34","valence","2000","59303","30pct","5","P177_self_disclosure_pos1.wav"
"2022-01-10","10:57:17","Yuritza","4","listenblock","35","valence","2000","61321","30pct","5","P177_self_disclosure_pos1.wav"
"2022-01-10","10:57:17","Yuritza","4","listenblock","36","valence","1513","62852","29pct","5","P177_self_disclosure_pos1.wav"
"2022-01-10","10:57:17","Yuritza","4","listenblock","37","valence","568","63442","28pct","5","P177_self_disclosure_pos1.wav"
"2022-01-10","10:57:17","Yuritza","4","listenblock","38","valence","214","63671","27pct","5","P177_self_disclosure_pos1.wav"
"2022-01-10","10:57:17","Yuritza","4","listenblock","39","valence","311","64003","26pct","5","P177_self_disclosure_pos1.wav"
"2022-01-10","10:57:17","Yuritza","4","listenblock","40","valence","458","64482","25pct","5","P177_self_disclosure_pos1.wav"
"2022-01-10","10:57:17","Yuritza","4","listenblock","41","valence","284","64791","24pct","5","P177_self_disclosure_pos1.wav"
"2022-01-10","10:57:17","Yuritza","4","listenblock","42","valence","714","65522","23pct","5","P177_self_disclosure_pos1.wav"
"2022-01-10","10:57:17","Yuritza","4","listenblock","43","valence","330","65872","22pct","5","P177_self_disclosure_pos1.wav"
"2022-01-10","10:57:17","Yuritza","4","listenblock","44","valence","620","66512","21pct","5","P177_self_disclosure_pos1.wav"
"2022-01-10","10:57:17","Yuritza","4","listenblock","45","valence","656","67182","20pct","5","P177_self_disclosure_pos1.wav"
"2022-01-10","10:57:17","Yuritza","4","listenblock","46","valence","419","67612","19pct","5","P177_self_disclosure_pos1.wav"
"2022-01-10","10:57:17","Yuritza","4","listenblock","47","valence","2000","69627","19pct","5","P177_self_disclosure_pos1.wav"
"2022-01-10","10:57:17","Yuritza","4","listenblock","48","valence","2000","71645","19pct","5","P177_self_disclosure_pos1.wav"
"2022-01-10","10:57:17","Yuritza","4","listenblock","49","valence","1269","72932","18pct","5","P177_self_disclosure_pos1.wav"
"2022-01-10","10:57:17","Yuritza","4","listenblock","50","valence","2000","74947","18pct","5","P177_self_disclosure_pos1.wav"
"2022-01-10","10:57:17","Yuritza","4","listenblock","51","valence","2000","76965","18pct","5","P177_self_disclosure_pos1.wav"
"2022-01-10","10:57:17","Yuritza","4","listenblock","52","valence","2000","78983","18pct","5","P177_self_disclosure_pos1.wav"
"2022-01-10","10:57:17","Yuritza","4","listenblock","53","valence","2000","81001","18pct","5","P177_self_disclosure_pos1.wav"
"2022-01-10","10:57:17","Yuritza","4","listenblock","54","valence","2000","83020","18pct","5","P177_self_disclosure_pos1.wav"
"2022-01-10","10:57:17","Yuritza","4","listenblock","55","valence","2000","85037","18pct","5","P177_self_disclosure_pos1.wav"
"2022-01-10","10:57:17","Yuritza","4","listenblock","56","valence","2000","87056","18pct","5","P177_self_disclosure_pos1.wav"
"2022-01-10","10:57:17","Yuritza","4","listenblock","57","valence","2000","89074","18pct","5","P177_self_disclosure_pos1.wav"
"2022-01-10","10:57:17","Yuritza","4","listenblock","58","valence","2000","91091","18pct","5","P177_self_disclosure_pos1.wav"
"2022-01-10","10:57:17","Yuritza","4","listenblock","59","valence","2000","93110","18pct","5","P177_self_disclosure_pos1.wav"
"2022-01-10","10:57:17","Yuritza","4","listenblock","60","valence","2000","95128","18pct","5","P177_self_disclosure_pos1.wav"
"2022-01-10","10:57:17","Yuritza","4","listenblock","61","valence","307","95453","17pct","5","P177_self_disclosure_pos1.wav"
"2022-01-10","10:57:17","Yuritza","4","listenblock","62","valence","2000","97479","17pct","5","P177_self_disclosure_pos1.wav"
"2022-01-10","10:57:17","Yuritza","4","listenblock","63","valence","2000","99497","17pct","5","P177_self_disclosure_pos1.wav"
"2022-01-10","10:57:17","Yuritza","4","listenblock","64","valence","2000","101515","17pct","5","P177_self_disclosure_pos1.wav"
"2022-01-10","10:57:17","Yuritza","4","listenblock","65","valence","2000","103534","17pct","5","P177_self_disclosure_pos1.wav"
"2022-01-10","10:57:17","Yuritza","4","listenblock","66","valence","2000","105552","17pct","5","P177_self_disclosure_pos1.wav"
"2022-01-10","10:57:17","Yuritza","4","listenblock","67","valence","2000","107569","17pct","5","P177_self_disclosure_pos1.wav"
"2022-01-10","10:57:17","Yuritza","4","listenblock","68","valence","2000","109587","17pct","5","P177_self_disclosure_pos1.wav"
"2022-01-10","10:57:17","Yuritza","4","listenblock","69","valence","2000","111606","17pct","5","P177_self_disclosure_pos1.wav"
"2022-01-10","10:57:17","Yuritza","4","listenblock","70","valence","2000","113624","17pct","5","P177_self_disclosure_pos1.wav"
"2022-01-10","10:57:17","Yuritza","4","listenblock","71","valence","2000","115642","17pct","5","P177_self_disclosure_pos1.wav"
"2022-01-10","10:57:17","Yuritza","4","listenblock","72","valence","2000","117660","17pct","5","P177_self_disclosure_pos1.wav"
"2022-01-10","10:57:17","Yuritza","4","listenblock","73","valence","2000","119678","17pct","5","P177_self_disclosure_pos1.wav"
"2022-01-10","10:57:17","Yuritza","4","listenblock","74","valence","2000","121696","17pct","5","P177_self_disclosure_pos1.wav"
"2022-01-10","10:57:17","Yuritza","4","listenblock","75","valence","2000","123714","17pct","5","P177_self_disclosure_pos1.wav"
"2022-01-10","10:57:17","Yuritza","4","listenblock","76","valence","632","124363","16pct","5","P177_self_disclosure_pos1.wav"
"2022-01-10","10:57:17","Yuritza","4","listenblock","77","valence","212","124594","15pct","5","P177_self_disclosure_pos1.wav"
"2022-01-10","10:57:17","Yuritza","4","listenblock","78","valence","1488","126104","14pct","5","P177_self_disclosure_pos1.wav"
"2022-01-10","10:57:17","Yuritza","4","listenblock","79","valence","1737","127854","13pct","5","P177_self_disclosure_pos1.wav"
"2022-01-10","10:57:17","Yuritza","4","listenblock","80","valence","1106","128974","12pct","5","P177_self_disclosure_pos1.wav"
"2022-01-10","10:57:17","Yuritza","4","listenblock","81","valence","1639","130624","11pct","5","P177_self_disclosure_pos1.wav"
"2022-01-10","10:57:17","Yuritza","4","listenblock","82","valence","1987","132624","10pct","5","P177_self_disclosure_pos1.wav"
"2022-01-10","10:57:17","Yuritza","4","listenblock","83","valence","2000","134638","10pct","5","P177_self_disclosure_pos1.wav"
"2022-01-10","10:57:17","Yuritza","4","listenblock","84","valence","2000","136656","10pct","5","P177_self_disclosure_pos1.wav"
"2022-01-10","10:57:17","Yuritza","4","listenblock","85","valence","1881","138556","9pct","5","P177_self_disclosure_pos1.wav"
"2022-01-10","10:57:17","Yuritza","4","listenblock","86","valence","1010","139584","8pct","5","P177_self_disclosure_pos1.wav"
"2022-01-10","10:57:17","Yuritza","4","listenblock","87","valence","396","140005","7pct","5","P177_self_disclosure_pos1.wav"
"2022-01-10","10:57:17","Yuritza","4","listenblock","88","valence","2000","142026","7pct","5","P177_self_disclosure_pos1.wav"
"2022-01-10","10:57:17","Yuritza","4","listenblock","89","valence","2000","144045","7pct","5","P177_self_disclosure_pos1.wav"
"2022-01-10","10:57:17","Yuritza","4","listenblock","90","valence","2000","146063","7pct","5","P177_self_disclosure_pos1.wav"
"2022-01-10","10:57:17","Yuritza","4","listenblock","91","valence","2000","148081","7pct","5","P177_self_disclosure_pos1.wav"
"2022-01-10","10:57:17","Yuritza","4","listenblock","92","valence","2000","150099","7pct","5","P177_self_disclosure_pos1.wav"
"2022-01-10","10:57:17","Yuritza","4","listenblock","93","valence","2000","152116","7pct","5","P177_self_disclosure_pos1.wav"
"2022-01-10","10:57:17","Yuritza","4","listenblock","94","valence","2000","154135","7pct","5","P177_self_disclosure_pos1.wav"
"2022-01-10","10:57:17","Yuritza","4","listenblock","95","valence","2000","156153","7pct","5","P177_self_disclosure_pos1.wav"
"2022-01-10","10:57:17","Yuritza","4","listenblock","96","valence","2000","158171","7pct","5","P177_self_disclosure_pos1.wav"
"2022-01-10","10:57:17","Yuritza","4","listenblock","97","valence","2000","160189","7pct","5","P177_self_disclosure_pos1.wav"
"2022-01-10","10:57:17","Yuritza","4","listenblock","98","valence","2000","162207","7pct","5","P177_self_disclosure_pos1.wav"
"2022-01-10","10:57:17","Yuritza","4","listenblock","99","valence","2000","164225","7pct","5","P177_self_disclosure_pos1.wav"
"2022-01-10","10:57:17","Yuritza","4","listenblock","100","valence","2000","166243","7pct","5","P177_self_disclosure_pos1.wav"
"2022-01-10","10:57:17","Yuritza","4","listenblock","101","valence","2000","168261","7pct","5","P177_self_disclosure_pos1.wav"
"2022-01-10","10:57:17","Yuritza","4","listenblock","102","valence","2000","170279","7pct","5","P177_self_disclosure_pos1.wav"
"2022-01-10","10:57:17","Yuritza","4","listenblock","103","valence","2000","172297","7pct","5","P177_self_disclosure_pos1.wav"
"2022-01-10","10:57:17","Yuritza","4","listenblock","104","valence","2000","174315","7pct","5","P177_self_disclosure_pos1.wav"
"2022-01-10","10:57:17","Yuritza","4","listenblock","105","valence","1613","175946","6pct","5","P177_self_disclosure_pos1.wav"
